subjID	subjIDx	block	nTrial	reversals	corrAns	choice	outcome	rt
1	402001	2	1	0	1	1	-1	0.4804586685131653
1	402001	2	2	0	0	2	-1	0.5344907221337962
1	402001	2	3	0	0	2	-1	0.5445258632238392
1	402001	2	4	0	1	1	1	0.5952111247829635
1	402001	2	5	0	1	1	1	0.4099125697925956
1	402001	2	6	0	1	1	1	0.5126170940275188
1	402001	2	7	0	1	1	1	0.439267230985024
1	402001	2	8	0	1	1	-1	0.3813147301966637
1	402001	2	9	0	0	2	1	0.4353291617458126
1	402001	2	10	0	0	2	-1	0.5213347637095467
1	402001	2	11	0	1	1	1	0.5753606341472732
1	402001	2	12	0	1	1	1	0.6301052996059298
1	402001	2	13	0	1	1	1	0.5867293435317151
1	402001	2	14	0	1	1	1	0.3854382949252795
1	402001	2	15	0	1	1	1	0.4080931682010487
1	402001	2	16	0	1	1	1	0.3659665242471419
1	402001	2	17	1	0	1	-1	0.5161300694371675
1	402001	2	18	1	1	2	1	0.682825900116768
1	402001	2	19	1	1	2	1	0.384857694044058
1	402001	2	20	1	1	2	1	0.4427972101480009
1	402001	2	21	1	1	2	1	0.593469012978403
1	402001	2	22	1	1	2	1	0.4522605716970247
1	402001	2	23	1	1	2	1	0.4736148124329702
1	402001	2	24	2	0	2	-1	0.4314714738852672
1	402001	2	25	2	1	1	-1	0.4575654335335457
1	402001	2	26	2	0	2	1	0.50894057342839
1	402001	2	27	2	0	2	-1	0.3909552399386484
1	402001	2	28	2	0	2	-1	0.7176214531714322
1	402001	2	29	2	1	1	1	0.5775977097491705
1	402001	2	30	2	1	1	1	0.9844196155299868
1	402001	2	31	2	1	1	1	0.5143851752004593
1	402001	2	32	2	1	1	1	0.5644361864601706
1	402001	2	33	2	1	1	-1	0.6031206524494337
1	402001	2	34	2	0	2	1	0.41637646927893
1	402001	2	35	2	0	2	-1	0.5192096037199008
1	402001	2	36	2	1	1	-1	0.4138855740156941
1	402001	2	37	2	0	2	-1	0.7412495594480788
1	402001	2	38	2	1	1	1	0.6039028250961564
1	402001	2	39	2	1	1	1	0.434636026933731
1	402001	2	40	2	1	1	1	0.4280948376604101
1	402001	2	41	2	1	1	1	0.4793580619430031
1	402001	2	42	2	1	1	1	0.5172068707529434
1	402001	2	43	2	1	1	1	0.4273908822783596
1	402001	2	44	2	1	1	1	0.5619724972020776
1	402001	2	45	3	0	1	-1	0.5847519616149839
1	402001	2	46	3	1	2	-1	1.102741932491881
1	402001	2	47	3	0	1	1	0.5200542265147305
1	402001	2	48	3	0	1	-1	0.7474778796631654
1	402001	2	49	3	0	1	-1	0.5445258632238392
1	402001	2	50	3	1	2	1	0.6648263453057552
1	402001	2	51	3	1	2	1	0.4028096383458432
1	402001	2	52	3	1	2	-1	0.4901875977716372
1	402001	2	53	3	0	1	-1	0.4004250938296536
1	402001	2	54	3	0	1	-1	0.4356210079822631
1	402001	2	55	3	1	2	1	0.3303319132623983
1	402001	2	56	3	1	2	1	0.5936603824916347
1	402001	2	57	3	1	2	1	0.3956328178619515
1	402001	2	58	3	1	2	1	0.3983821701735905
1	402001	2	59	3	1	2	1	0.4049675692053824
1	402001	2	60	3	1	2	-1	0.4589597412955299
2	402002	2	1	0	1	1	1	0.5715134000001854
2	402002	2	2	0	1	1	1	0.5731509999995978
2	402002	2	3	0	1	1	-1	0.5321776000000682
2	402002	2	4	0	1	1	1	0.4947784999994837
2	402002	2	5	0	1	1	1	1.5
2	402002	2	6	0	0	2	-1	0.6802956999999878
2	402002	2	7	0	1	1	1	0.5578312999996342
2	402002	2	8	0	1	1	1	0.4430408999996871
2	402002	2	9	0	1	1	1	0.9032177999997656
2	402002	2	10	0	1	1	1	0.7466861000002609
2	402002	2	11	0	1	1	1	0.71762630000012
2	402002	2	12	0	1	1	-1	0.7180337999998301
2	402002	2	13	0	0	2	1	0.6210937000005288
2	402002	2	14	0	0	2	-1	0.4266379999999117
2	402002	2	15	0	0	2	-1	0.603232599999501
2	402002	2	16	0	1	1	1	0.4777106999999887
2	402002	2	17	0	1	1	1	0.6435832000006485
2	402002	2	18	0	1	1	-1	0.699831500000073
2	402002	2	19	0	0	2	-1	0.5415829000003214
2	402002	2	20	0	1	1	1	0.4487889000001814
2	402002	2	21	0	1	1	1	0.5010245000003124
2	402002	2	22	0	1	1	1	0.7688860999996905
2	402002	2	23	0	1	1	1	0.5060720000001311
2	402002	2	24	0	1	1	1	0.5696088000004238
2	402002	2	25	0	1	1	-1	0.5530642000003354
2	402002	2	26	0	1	1	1	0.5098103999998784
2	402002	2	27	1	0	1	-1	0.5724360000003799
2	402002	2	28	1	0	1	-1	0.5529065000000628
2	402002	2	29	1	1	2	1	0.5912735000001703
2	402002	2	30	1	0	1	1	0.8018690999997489
2	402002	2	31	1	0	1	-1	0.5684766000003947
2	402002	2	32	1	0	1	-1	0.5181485000002795
2	402002	2	33	1	1	2	1	0.6397700999996232
2	402002	2	34	1	1	2	1	0.6009874999999738
2	402002	2	35	1	1	2	1	0.596551300000101
2	402002	2	36	1	1	2	1	0.6001851999999417
2	402002	2	37	1	1	2	1	0.60817009999937
2	402002	2	38	1	1	2	1	0.5147004999998899
2	402002	2	39	1	1	2	-1	0.5045093999997334
2	402002	2	40	2	0	2	-1	0.5867677000005642
2	402002	2	41	2	1	1	1	0.5754422999998496
2	402002	2	42	2	1	1	1	0.4463489999998273
2	402002	2	43	2	1	1	1	0.5438571000004231
2	402002	2	44	2	1	1	1	0.4457015000007231
2	402002	2	45	2	1	1	1	0.5610617000002094
2	402002	2	46	2	1	1	1	0.5075951999997415
2	402002	2	47	3	0	1	-1	0.4947707999999693
2	402002	2	48	3	1	2	1	0.5583513000001403
2	402002	2	49	3	1	2	1	0.537868499999604
2	402002	2	50	3	1	2	1	0.4515185000000201
2	402002	2	51	3	1	2	-1	0.5108202999999776
2	402002	2	52	3	0	1	-1	0.6076378000007026
2	402002	2	53	3	0	1	-1	0.5800495593220442
2	402002	2	54	3	1	2	1	0.4091123999996853
2	402002	2	55	3	1	2	1	0.4971734999999171
2	402002	2	56	3	1	2	1	0.6550690999993094
2	402002	2	57	3	1	2	1	0.6347590999994281
2	402002	2	58	3	1	2	1	0.5003332999995109
2	402002	2	59	3	1	2	1	0.5518707999999606
2	402002	2	60	3	1	2	1	0.5964532000007239
3	402003	2	1	1	0	1	1	0.3644375000003492
3	402003	2	2	1	0	1	1	0.5730409000025247
3	402003	2	3	1	0	1	-1	0.422848400001385
3	402003	2	4	1	0	1	-1	0.4905287999972643
3	402003	2	5	1	1	2	1	0.5922907999993186
3	402003	2	6	1	1	2	-1	0.3919767000006686
3	402003	2	7	1	1	2	1	0.4185883999998623
3	402003	2	8	1	0	1	-1	0.4864153000016813
3	402003	2	9	1	1	2	1	0.4084604000017862
3	402003	2	10	1	1	2	1	0.4857267000006686
3	402003	2	11	1	1	2	1	0.5493739000012283
3	402003	2	12	1	1	2	1	0.4003086000011535
3	402003	2	13	1	1	2	1	0.4328606999988551
3	402003	2	14	1	1	2	1	0.380499900002178
3	402003	2	15	2	0	2	-1	0.4415584000016679
3	402003	2	16	2	0	2	-1	0.4308082999996259
3	402003	2	17	2	1	1	-1	0.5082908999975189
3	402003	2	18	2	1	1	1	0.319258899999113
3	402003	2	19	2	1	1	1	0.4217740999993111
3	402003	2	20	2	1	1	1	0.4289414999984728
3	402003	2	21	2	1	1	1	0.3824089000008825
3	402003	2	22	2	1	1	1	0.3242778999992879
3	402003	2	23	3	0	1	-1	0.4536169999992125
3	402003	2	24	3	0	1	-1	0.340186099998391
3	402003	2	25	3	1	2	1	0.8607663000002503
3	402003	2	26	3	1	2	-1	0.4874406999988423
3	402003	2	27	3	0	1	-1	0.4021836000028997
3	402003	2	28	3	0	1	-1	0.436406500000885
3	402003	2	29	3	1	2	1	0.3971001999998407
3	402003	2	30	3	1	2	-1	0.5123128000013821
3	402003	2	31	3	1	2	1	0.400649400002294
3	402003	2	32	3	1	2	1	0.4158836999995401
3	402003	2	33	3	1	2	-1	0.4491730999980063
3	402003	2	34	3	1	2	1	0.435467500003142
3	402003	2	35	3	1	2	1	0.4048847999983991
3	402003	2	36	4	0	2	-1	0.3716109000015422
3	402003	2	37	4	0	2	-1	0.4188311999969301
3	402003	2	38	4	0	2	-1	0.6435517000027176
3	402003	2	39	4	1	1	1	0.5318937000010919
3	402003	2	40	4	1	1	-1	0.4123894000003929
3	402003	2	41	4	0	2	1	0.4303250999982992
3	402003	2	42	4	0	2	-1	0.4494950999978755
3	402003	2	43	4	1	1	1	0.2943973000001278
3	402003	2	44	4	1	1	1	0.4043424000010418
3	402003	2	45	4	1	1	1	0.6086420999999973
3	402003	2	46	4	1	1	1	0.5392994999965595
3	402003	2	47	4	1	1	1	0.3689556999997876
3	402003	2	48	4	1	1	1	0.355033399999229
3	402003	2	49	4	1	1	1	0.287092800001119
3	402003	2	50	5	0	1	1	0.4627065999993647
3	402003	2	51	5	0	1	-1	0.4030340999997861
3	402003	2	52	5	1	2	1	0.6621286000008695
3	402003	2	53	5	0	1	-1	0.46684481000011147
3	402003	2	54	5	0	1	-1	0.6673936000006506
3	402003	2	55	5	1	2	1	0.4838507000022218
3	402003	2	56	5	1	2	-1	0.4282939000004262
3	402003	2	57	5	1	2	1	0.57297219999964
3	402003	2	58	5	1	2	1	0.4462738000001991
3	402003	2	59	5	1	2	1	0.4438518999995722
3	402003	2	60	5	1	2	1	0.405739400001039
4	402004	2	1	1	1	2	-1	0.8515992802767869
4	402004	2	2	1	0	1	-1	0.9562233736687632
4	402004	2	3	1	1	2	1	1.0556607040180097
4	402004	2	4	1	1	2	1	0.4704066679441894
4	402004	2	5	1	1	2	1	0.5564073233617819
4	402004	2	6	1	1	2	-1	0.5470648430400615
4	402004	2	7	1	0	1	-1	0.588363558794299
4	402004	2	8	1	1	2	1	0.639807641178777
4	402004	2	9	1	1	2	1	0.6784825232334697
4	402004	2	10	1	1	2	1	0.668509049088243
4	402004	2	11	1	1	2	1	0.6111887787610613
4	402004	2	12	1	1	2	1	0.5891225445029704
4	402004	2	13	1	1	2	-1	0.528576816774148
4	402004	2	14	2	1	1	1	0.6504918722057482
4	402004	2	15	2	1	1	1	0.7332825281791884
4	402004	2	16	2	1	1	1	0.5633216677288146
4	402004	2	17	2	1	1	-1	0.5059605883907352
4	402004	2	18	2	0	2	1	0.4159467380613932
4	402004	2	19	2	0	2	-1	0.4859740677293303
4	402004	2	20	2	1	1	1	0.4753906225851096
4	402004	2	21	2	1	1	1	0.6893803832335834
4	402004	2	22	2	1	1	-1	0.4874382454599981
4	402004	2	23	2	0	2	-1	0.5579908365216397
4	402004	2	24	2	1	1	1	0.8047916576488205
4	402004	2	25	2	1	1	1	0.507478250654458
4	402004	2	26	2	1	1	-1	0.9301158110174584
4	402004	2	27	2	0	2	-1	0.4441194838273077
4	402004	2	28	2	1	1	1	0.6581200650471146
4	402004	2	29	2	1	1	1	0.5169122420847998
4	402004	2	30	2	1	1	1	0.7155720371720236
4	402004	2	31	2	1	1	-1	0.6768606743371492
4	402004	2	32	2	0	2	-1	0.4403458872548071
4	402004	2	33	2	1	1	1	1.0376098287888451
4	402004	2	34	2	1	1	1	0.5643456028283254
4	402004	2	35	2	1	1	1	0.522378484996807
4	402004	2	36	2	1	1	1	0.4810457617368229
4	402004	2	37	2	1	1	1	0.4584978575276182
4	402004	2	38	2	1	1	-1	0.5577543297731609
4	402004	2	39	3	1	2	1	0.8684629843737639
4	402004	2	40	3	1	2	1	1.1330185062670353
4	402004	2	41	3	1	2	-1	0.4999684657668695
4	402004	2	42	3	0	1	1	0.4424268374878011
4	402004	2	43	3	0	1	-1	0.38398184617472
4	402004	2	44	3	1	2	1	0.851851244982754
4	402004	2	45	3	1	2	-1	0.6818962585566624
4	402004	2	46	3	0	1	-1	0.6245945377777389
4	402004	2	47	3	1	2	1	0.4225896406951506
4	402004	2	48	3	1	2	1	0.6307371539220488
4	402004	2	49	3	1	2	1	0.4993337620344391
4	402004	2	50	3	1	2	-1	0.7626733609940857
4	402004	2	51	3	0	1	-1	0.3379752549008117
4	402004	2	52	3	1	2	1	0.4239740553657611
4	402004	2	53	3	1	2	1	0.5299581398503506
4	402004	2	54	3	1	2	-1	0.8047687798716652
4	402004	2	55	3	0	1	-1	0.4594735638002021
4	402004	2	56	3	0	1	1	0.5780812346583843
4	402004	2	57	3	0	1	-1	0.6360578498588438
4	402004	2	58	3	1	2	1	0.5915095622913213
4	402004	2	59	3	1	2	1	0.7769388916021853
4	402004	2	60	3	1	2	1	0.5395569131087541
5	402005	2	1	0	0	2	1	0.4251570036576595
5	402005	2	2	0	1	1	1	0.3191027867724187
5	402005	2	3	0	0	2	1	0.5657334762036044
5	402005	2	4	0	1	1	1	0.8610478204973333
5	402005	2	5	0	1	1	-1	0.4036847399947874
5	402005	2	6	0	1	1	1	0.6983390413406596
5	402005	2	7	0	1	1	1	1.5
5	402005	2	8	0	0	2	-1	0.7608273321457091
5	402005	2	9	0	1	1	1	0.7355036328626738
5	402005	2	10	0	0	2	-1	1.1101576126930013
5	402005	2	11	0	1	1	1	0.4448216461933043
5	402005	2	12	0	1	1	-1	0.4514322777395136
5	402005	2	13	0	0	2	-1	0.5220519266767951
5	402005	2	14	0	1	1	1	0.6886483124217193
5	402005	2	15	0	1	1	1	0.6313065016838664
5	402005	2	16	0	1	1	1	0.8619020119076595
5	402005	2	17	0	1	1	1	0.9326416124458774
5	402005	2	18	0	1	1	1	0.7957830211598775
5	402005	2	19	0	1	1	1	0.5625068400222517
5	402005	2	20	1	0	1	-1	0.7131416251213523
5	402005	2	21	1	1	2	1	0.4638426309211354
5	402005	2	22	1	1	2	1	0.8224156768083049
5	402005	2	23	1	1	2	1	0.6850349250817089
5	402005	2	24	1	1	2	1	0.6116965793407871
5	402005	2	25	1	1	2	1	1.3383123552011966
5	402005	2	26	1	1	2	1	0.4809409893787233
5	402005	2	27	1	1	2	-1	0.4876505500760686
5	402005	2	28	2	1	1	1	0.3662824093444214
5	402005	2	29	2	1	1	1	0.6134983265510527
5	402005	2	30	2	1	1	1	0.5242299138262752
5	402005	2	31	2	1	1	1	0.5628051732528547
5	402005	2	32	2	1	1	1	0.6654930165313999
5	402005	2	33	2	1	1	1	0.5760932135235635
5	402005	2	34	3	1	2	1	0.8067477720833267
5	402005	2	35	3	0	1	-1	0.4293086274265079
5	402005	2	36	3	1	2	1	0.4199477654074144
5	402005	2	37	3	0	1	-1	1.5
5	402005	2	38	3	0	1	-1	1.5
5	402005	2	39	3	1	2	1	0.4425555502675706
5	402005	2	40	3	1	2	-1	0.3692487381886167
5	402005	2	41	3	0	1	-1	1.095764039127971
5	402005	2	42	3	1	2	1	0.4464777820576273
5	402005	2	43	3	1	2	1	0.5651476301209186
5	402005	2	44	3	1	2	1	0.4917202481374261
5	402005	2	45	3	1	2	1	0.658372899844835
5	402005	2	46	3	1	2	1	0.5369246883274172
5	402005	2	47	3	1	2	1	0.4476943014960852
5	402005	2	48	4	0	2	-1	0.342298890944221
5	402005	2	49	4	1	1	1	0.524849766803527
5	402005	2	50	4	1	1	1	0.6275308087024314
5	402005	2	51	4	1	1	1	1.2420864405830798
5	402005	2	52	4	1	1	-1	0.5287877654300246
5	402005	2	53	4	1	1	1	1.1274139486413333
5	402005	2	54	4	1	1	1	0.3980989526498888
5	402005	2	55	5	0	1	-1	0.3887183047991129
5	402005	2	56	5	1	2	1	0.39538489314873
5	402005	2	57	5	1	2	1	0.3858812021608173
5	402005	2	58	5	1	2	1	1.112573338963557
5	402005	2	59	5	1	2	1	0.3992579695150198
5	402005	2	60	5	1	2	1	0.9345537274966772
6	402006	2	1	0	1	1	1	0.7676032127819781
6	402006	2	2	0	0	2	-1	0.8856729467188416
6	402006	2	3	0	1	1	1	1.147659665242827
6	402006	2	4	0	1	1	-1	0.7536993983740103
6	402006	2	5	0	0	2	-1	1.5
6	402006	2	6	0	0	2	1	0.5303272758756066
6	402006	2	7	0	0	2	-1	0.3897801260136475
6	402006	2	8	0	1	1	1	0.41525824063865
6	402006	2	9	0	1	1	1	0.8539080808004655
6	402006	2	10	0	1	1	-1	0.3605129568604752
6	402006	2	11	0	0	2	-1	0.3852988641483534
6	402006	2	12	0	1	1	1	0.6107301961818524
6	402006	2	13	0	1	1	1	0.6551338968274649
6	402006	2	14	0	1	1	1	0.4017863215631223
6	402006	2	15	0	1	1	-1	0.6632703473114816
6	402006	2	16	0	0	2	-1	0.6379412473943376
6	402006	2	17	0	0	2	-1	0.6766535377064429
6	402006	2	18	0	1	1	1	1.1946376345622411
6	402006	2	19	0	1	1	1	0.4994407310987299
6	402006	2	20	0	1	1	1	0.7746990335690498
6	402006	2	21	0	1	1	1	0.4614577472202654
6	402006	2	22	0	1	1	1	0.4840696473729622
6	402006	2	23	0	1	1	1	0.6028009818874125
6	402006	2	24	0	1	1	1	0.9447860309519456
6	402006	2	25	1	0	1	1	0.4714933623545221
6	402006	2	26	1	0	1	-1	0.5741592416961794
6	402006	2	27	1	0	1	-1	0.516860612508026
6	402006	2	28	1	0	1	1	0.4902908569274586
6	402006	2	29	1	0	1	-1	0.655568265432521
6	402006	2	30	1	1	2	1	0.8382191814707767
6	402006	2	31	1	1	2	1	0.523549889014248
6	402006	2	32	1	1	2	1	0.5303167644633504
6	402006	2	33	1	1	2	1	0.4716967890708474
6	402006	2	34	1	1	2	1	0.3983753686734417
6	402006	2	35	1	1	2	-1	0.5483623839900247
6	402006	2	36	1	1	2	1	0.924942650977755
6	402006	2	37	2	0	2	-1	0.7396558440341323
6	402006	2	38	2	1	1	1	0.4224724693776807
6	402006	2	39	2	1	1	-1	0.3644528810546035
6	402006	2	40	2	0	2	-1	0.7056832726375433
6	402006	2	41	2	1	1	1	0.4885097910701006
6	402006	2	42	2	1	1	1	0.4471492434859101
6	402006	2	43	2	1	1	1	0.5325402370617667
6	402006	2	44	2	1	1	1	0.6179061887487478
6	402006	2	45	2	1	1	-1	0.5467000352437026
6	402006	2	46	2	1	1	1	0.6139075243154366
6	402006	2	47	3	0	1	-1	0.3953078915947117
6	402006	2	48	3	1	2	1	0.6739691088150721
6	402006	2	49	3	1	2	1	0.6646859870525077
6	402006	2	50	3	1	2	1	0.5472593041449727
6	402006	2	51	3	1	2	-1	0.3899650031817145
6	402006	2	52	3	0	1	1	0.4927168287722452
6	402006	2	53	3	0	1	-1	1.157464956810145
6	402006	2	54	3	1	2	1	0.376809044759284
6	402006	2	55	3	1	2	1	0.4301399254291027
6	402006	2	56	3	1	2	1	0.7248124949765042
6	402006	2	57	3	1	2	-1	0.6695654458999343
6	402006	2	58	3	0	1	1	0.2722090657807712
6	402006	2	59	3	0	1	-1	0.7428683167490817
6	402006	2	60	3	0	1	-1	0.2849352929915767
7	402007	2	1	1	0	1	-1	0.2878032000007806
7	402007	2	2	1	1	2	1	0.7737972999966587
7	402007	2	3	1	1	2	1	0.6067342999958782
7	402007	2	4	1	1	2	-1	0.5054575000031036
7	402007	2	5	1	0	1	1	0.3285399000014877
7	402007	2	6	1	0	1	-1	0.7269979999982752
7	402007	2	7	1	1	2	1	0.5509658000009949
7	402007	2	8	1	1	2	1	0.440679999999702
7	402007	2	9	1	1	2	1	0.4345151000015903
7	402007	2	10	1	1	2	1	0.6723923000026844
7	402007	2	11	1	1	2	1	0.5707389000017429
7	402007	2	12	1	1	2	1	0.9165193000008004
7	402007	2	13	1	1	2	-1	0.5449143000005279
7	402007	2	14	2	1	1	1	0.5690494000009494
7	402007	2	15	2	1	1	-1	0.8239901000051759
7	402007	2	16	2	0	2	-1	0.4830692999967141
7	402007	2	17	2	1	1	-1	0.641937100001087
7	402007	2	18	2	0	2	-1	1.116356899998209
7	402007	2	19	2	1	1	1	0.5891959000000497
7	402007	2	20	2	1	1	1	0.3584887000033632
7	402007	2	21	2	1	1	1	0.2980004999990342
7	402007	2	22	2	1	1	1	0.6831078999966849
7	402007	2	23	2	1	1	1	0.6686604999995325
7	402007	2	24	2	1	1	1	0.5114355999976397
7	402007	2	25	2	1	1	1	0.6314568000016152
7	402007	2	26	3	0	1	1	0.5526591000016197
7	402007	2	27	3	0	1	-1	0.3768361999973422
7	402007	2	28	3	1	2	1	0.3663977999967756
7	402007	2	29	3	1	2	1	0.494997500005411
7	402007	2	30	3	1	2	-1	0.6721089999991818
7	402007	2	31	3	0	1	-1	0.4606094999980996
7	402007	2	32	3	1	2	1	0.6846415000036359
7	402007	2	33	3	1	2	-1	0.5210506000003079
7	402007	2	34	3	0	1	-1	0.3922939999974915
7	402007	2	35	3	1	2	-1	0.6815346000003046
7	402007	2	36	3	0	1	1	1.0596201000007568
7	402007	2	37	3	0	1	-1	0.5085574000040651
7	402007	2	38	3	1	2	1	0.5825840999968932
7	402007	2	39	3	1	2	1	0.5187378999980865
7	402007	2	40	3	1	2	1	0.3956720000060159
7	402007	2	41	3	1	2	1	1.0355781999969622
7	402007	2	42	3	1	2	-1	0.6938627999988967
7	402007	2	43	3	0	1	-1	0.8388847000023816
7	402007	2	44	3	0	1	-1	1.5
7	402007	2	45	3	1	2	1	1.005172400000447
7	402007	2	46	3	1	2	1	0.7006051999996998
7	402007	2	47	3	1	2	1	0.5430227999968338
7	402007	2	48	3	1	2	-1	0.7282566000067163
7	402007	2	49	3	0	1	-1	1.088477599994803
7	402007	2	50	3	1	2	-1	0.6232350999998744
7	402007	2	51	3	0	1	-1	0.5762849000020651
7	402007	2	52	3	1	2	1	0.5768586999984109
7	402007	2	53	3	1	2	1	0.7430089999979828
7	402007	2	54	3	1	2	1	0.5085115999972913
7	402007	2	55	3	1	2	-1	0.9474741999947582
7	402007	2	56	3	0	1	1	1.201047499998822
7	402007	2	57	3	0	1	-1	0.7092964999974356
7	402007	2	58	3	1	2	1	0.4903226000024006
7	402007	2	59	3	1	2	1	1.3230808000007528
7	402007	2	60	3	1	2	1	1.1237665999942692
8	402008	2	1	1	0	1	-1	0.415654500000528
8	402008	2	2	1	0	1	1	0.3922630999995817
8	402008	2	3	1	0	1	-1	1.090411099999983
8	402008	2	4	1	0	1	-1	0.5762180349999956
8	402008	2	5	1	1	2	1	0.6046752000002016
8	402008	2	6	1	1	2	1	0.5762180349999956
8	402008	2	7	1	1	2	-1	0.4426241999999547
8	402008	2	8	1	1	2	1	0.4903544999997393
8	402008	2	9	1	1	2	1	0.4609705000002577
8	402008	2	10	1	1	2	1	0.4590893999993568
8	402008	2	11	2	0	2	-1	0.3919851999999082
8	402008	2	12	2	0	2	-1	0.3960685000001831
8	402008	2	13	2	0	2	-1	0.5685154999991937
8	402008	2	14	2	1	1	1	0.2313302000002295
8	402008	2	15	2	1	1	1	0.4859261999999944
8	402008	2	16	2	1	1	1	0.6604984000005061
8	402008	2	17	2	0	2	1	0.6722293000002537
8	402008	2	18	2	0	2	-1	0.6127947000004497
8	402008	2	19	2	0	2	-1	0.4284889000000476
8	402008	2	20	2	1	1	1	0.4476015999998708
8	402008	2	21	2	1	1	-1	0.8847400999993624
8	402008	2	22	2	0	2	-1	0.6090994999995019
8	402008	2	23	2	1	1	1	0.727489500000047
8	402008	2	24	2	1	1	1	0.5762180349999956
8	402008	2	25	2	1	1	1	0.7005753000003097
8	402008	2	26	2	1	1	1	0.4914060999999492
8	402008	2	27	2	1	1	1	0.5577162999998109
8	402008	2	28	2	1	1	1	0.4686142000000473
8	402008	2	29	3	0	1	-1	0.3565164999999979
8	402008	2	30	3	1	2	1	0.8100279000000228
8	402008	2	31	3	1	2	1	0.4703912000004493
8	402008	2	32	3	1	2	1	0.456680199999937
8	402008	2	33	3	1	2	-1	0.4700298999996448
8	402008	2	34	3	1	2	-1	0.4963860999996541
8	402008	2	35	3	0	1	-1	0.5155920999995942
8	402008	2	36	3	0	1	-1	0.6063106999999945
8	402008	2	37	3	1	2	1	0.802563199999895
8	402008	2	38	3	1	2	1	0.6403384000004735
8	402008	2	39	3	1	2	1	0.4306931999999506
8	402008	2	40	3	1	2	-1	0.4115147000002253
8	402008	2	41	3	0	1	1	0.6655507000004945
8	402008	2	42	3	0	1	-1	0.7245414999997593
8	402008	2	43	3	1	2	1	0.5210604999992938
8	402008	2	44	3	1	2	1	0.6079404000001887
8	402008	2	45	3	1	2	-1	0.6375107000003482
8	402008	2	46	3	1	2	1	0.5676741000006587
8	402008	2	47	3	1	2	1	0.6823610999999801
8	402008	2	48	3	1	2	1	0.6593454000003476
8	402008	2	49	4	0	2	1	0.3544241999998121
8	402008	2	50	4	0	2	1	0.4386959000003116
8	402008	2	51	4	0	2	-1	0.4023687999997491
8	402008	2	52	4	1	1	1	0.5144203999998354
8	402008	2	53	4	1	1	1	0.3990937999997186
8	402008	2	54	4	1	1	-1	0.5068170000004102
8	402008	2	55	4	0	2	-1	0.4430758999997124
8	402008	2	56	4	1	1	1	0.5440249999992375
8	402008	2	57	4	1	1	1	0.3359019999998054
8	402008	2	58	4	1	1	1	0.4820445000004838
8	402008	2	59	4	1	1	1	0.6116378999995504
8	402008	2	60	4	1	1	1	0.4269905000001017
11	402011	2	1	1	0	1	-1	1.152319899993017
11	402011	2	2	1	0	1	-1	1.5
11	402011	2	3	1	1	2	1	0.7116335000027902
11	402011	2	4	1	1	2	1	0.5026373000000603
11	402011	2	5	1	1	2	-1	0.4851143999840133
11	402011	2	6	1	0	1	1	0.7562356000125874
11	402011	2	7	1	0	1	-1	0.8010851000144612
11	402011	2	8	1	1	2	1	0.3911550000193529
11	402011	2	9	1	1	2	1	0.4921306000032928
11	402011	2	10	1	0	1	-1	1.0774804999819023
11	402011	2	11	1	1	2	1	0.6510573000123259
11	402011	2	12	1	1	2	1	0.5579125999938697
11	402011	2	13	1	1	2	1	0.462237500003539
11	402011	2	14	1	1	2	-1	0.5123764000018127
11	402011	2	15	1	0	1	-1	0.501616900000954
11	402011	2	16	1	1	2	1	0.4404470000008587
11	402011	2	17	1	1	2	1	0.5284227000083774
11	402011	2	18	1	1	2	-1	0.5372411999851465
11	402011	2	19	1	0	1	1	0.5414535000163596
11	402011	2	20	1	0	1	-1	0.8453228999860585
11	402011	2	21	1	1	2	1	0.4268892999971285
11	402011	2	22	1	1	2	-1	0.9832475000002888
11	402011	2	23	1	1	2	1	0.606946899992181
11	402011	2	24	1	1	2	-1	0.3553443000128027
11	402011	2	25	1	0	1	-1	0.8368595000065397
11	402011	2	26	1	1	2	1	0.4362200000032317
11	402011	2	27	1	1	2	1	0.4556909000093583
11	402011	2	28	1	1	2	1	0.4594322999764699
11	402011	2	29	1	1	2	-1	0.5877162000106182
11	402011	2	30	1	0	1	1	0.6693964999867603
11	402011	2	31	1	0	1	-1	0.5889502000063658
11	402011	2	32	1	1	2	1	0.6030624999839347
11	402011	2	33	1	1	2	1	0.5319311000057496
11	402011	2	34	1	1	2	1	0.6975921999837738
11	402011	2	35	1	1	2	1	0.4907811000011861
11	402011	2	36	1	1	2	1	0.4259584000101313
11	402011	2	37	1	1	2	-1	0.4460668000101577
11	402011	2	38	1	1	2	-1	0.4986224000167567
11	402011	2	39	2	0	2	-1	0.620702899992466
11	402011	2	40	2	1	1	1	0.4589581999753136
11	402011	2	41	2	1	1	1	0.5816017000179272
11	402011	2	42	2	1	1	1	0.5881438000069465
11	402011	2	43	2	1	1	1	0.5800057000014931
11	402011	2	44	2	1	1	1	0.4968466999998782
11	402011	2	45	2	1	1	1	0.5887667135615691
11	402011	2	46	3	0	1	-1	0.9127889999945182
11	402011	2	47	3	1	2	1	0.6001936999964528
11	402011	2	48	3	1	2	1	0.6092795000004116
11	402011	2	49	3	1	2	1	0.3912311000167392
11	402011	2	50	3	1	2	-1	0.4365607000072486
11	402011	2	51	3	0	1	1	0.701150900014909
11	402011	2	52	3	0	1	-1	0.5860627999936696
11	402011	2	53	3	1	2	-1	0.5899884000245947
11	402011	2	54	3	0	1	-1	0.425163900014013
11	402011	2	55	3	1	2	1	0.4959083000139799
11	402011	2	56	3	1	2	1	0.4114328999712597
11	402011	2	57	3	1	2	1	0.3974982000072486
11	402011	2	58	3	1	2	-1	0.3977651000022888
11	402011	2	59	3	0	1	-1	0.6899793000193313
11	402011	2	60	3	1	2	-1	0.4625817000051029
12	402012	2	1	0	1	1	1	0.5614850005713379
12	402012	2	2	0	1	1	-1	0.4395414576265466
12	402012	2	3	0	1	1	1	0.3974807871454686
12	402012	2	4	0	1	1	1	0.6120903171922691
12	402012	2	5	0	1	1	1	0.4427012174965057
12	402012	2	6	0	1	1	1	0.6253681104790303
12	402012	2	7	0	1	1	1	0.8719635619709152
12	402012	2	8	1	0	1	-1	0.4306499180838727
12	402012	2	9	1	0	1	-1	0.3733126433999132
12	402012	2	10	1	0	1	1	0.5559071896277601
12	402012	2	11	1	0	1	-1	0.4985420892699039
12	402012	2	12	1	0	1	-1	0.6812340253582079
12	402012	2	13	1	0	1	-1	0.8317928731030406
12	402012	2	14	1	1	2	-1	0.4544111886425526
12	402012	2	15	1	1	2	1	0.49231018633949813
12	402012	2	16	1	1	2	1	0.3557110495439701
12	402012	2	17	1	1	2	1	0.5063907843832567
12	402012	2	18	1	1	2	1	0.4969572625468572
12	402012	2	19	1	1	2	-1	1.5
12	402012	2	20	1	1	2	1	0.4796005346233869
12	402012	2	21	2	0	2	-1	0.3102015413569461
12	402012	2	22	2	1	1	-1	0.6848634207708528
12	402012	2	23	2	0	2	1	0.3235356043405772
12	402012	2	24	2	0	2	-1	0.3141215604755416
12	402012	2	25	2	1	1	1	0.400823268941167
12	402012	2	26	2	1	1	1	0.4553897248442808
12	402012	2	27	2	1	1	1	0.3660040755330556
12	402012	2	28	2	1	1	1	0.3733213002742559
12	402012	2	29	2	1	1	-1	0.7799638451742794
12	402012	2	30	2	1	1	1	0.4826196202538995
12	402012	2	31	3	0	1	-1	0.3457877958462632
12	402012	2	32	3	0	1	1	0.4005706736570573
12	402012	2	33	3	0	1	-1	0.439157154150962
12	402012	2	34	3	0	1	-1	0.3818495601844915
12	402012	2	35	3	0	1	-1	0.7404696293597226
12	402012	2	36	3	1	2	1	0.6030766538588068
12	402012	2	37	3	1	2	1	0.449748224025825
12	402012	2	38	3	1	2	1	0.3129222739262332
12	402012	2	39	3	1	2	-1	0.3836851271462365
12	402012	2	40	3	1	2	1	0.534323741823755
12	402012	2	41	3	1	2	1	0.5249687502218876
12	402012	2	42	3	1	2	1	0.867610699033321
12	402012	2	43	4	0	2	-1	0.4262191432608233
12	402012	2	44	4	0	2	1	0.4328462912853865
12	402012	2	45	4	0	2	-1	0.3281435359567695
12	402012	2	46	4	1	1	1	0.3508035281720367
12	402012	2	47	4	1	1	1	0.4213994273468415
12	402012	2	48	4	1	1	1	0.3639851682983135
12	402012	2	49	4	1	1	1	0.418635410396746
12	402012	2	50	4	1	1	1	0.4413689860593877
12	402012	2	51	4	1	1	1	0.4158571714342542
12	402012	2	52	5	0	1	-1	0.423247979624648
12	402012	2	53	5	0	1	-1	0.8778802277865907
12	402012	2	54	5	0	1	-1	0.3885138091100089
12	402012	2	55	5	1	2	1	0.3791112046874332
12	402012	2	56	5	1	2	1	0.3857565939888445
12	402012	2	57	5	1	2	1	0.3764065491741348
12	402012	2	58	5	1	2	1	0.4629604723941156
12	402012	2	59	5	1	2	1	0.4696698607458529
12	402012	2	60	5	1	2	1	0.5402815278011985
13	402013	2	1	0	0	2	-1	0.3784169000573456
13	402013	2	2	0	1	1	-1	0.5319518999895081
13	402013	2	3	0	0	2	-1	0.4515934999799356
13	402013	2	4	0	1	1	1	0.3851424999302253
13	402013	2	5	0	1	1	1	0.4878806000342592
13	402013	2	6	0	1	1	1	0.4943215999519452
13	402013	2	7	0	1	1	1	0.3985054999357089
13	402013	2	8	0	1	1	1	0.3890576000558212
13	402013	2	9	0	1	1	-1	0.4436171998968348
13	402013	2	10	0	0	2	1	0.577662399969995
13	402013	2	11	0	0	2	-1	0.7042435000184923
13	402013	2	12	0	0	2	-1	0.4315165999578312
13	402013	2	13	0	1	1	1	0.4694163999520242
13	402013	2	14	0	1	1	-1	0.5403359000338241
13	402013	2	15	0	1	1	1	0.4826090999413281
13	402013	2	16	0	1	1	1	0.5946903999429196
13	402013	2	17	0	1	1	1	0.7203152000438422
13	402013	2	18	0	1	1	-1	0.599707999965176
13	402013	2	19	0	0	2	-1	0.5030224999645725
13	402013	2	20	0	0	2	-1	0.453879400040023
13	402013	2	21	0	1	1	1	0.4202157999388873
13	402013	2	22	0	0	2	1	1.5
13	402013	2	23	0	0	2	-1	0.5396469000261277
13	402013	2	24	0	0	2	-1	0.6103553000139073
13	402013	2	25	0	0	2	-1	0.5762433999916539
13	402013	2	26	0	1	1	-1	0.4072031000396237
13	402013	2	27	0	1	1	1	0.4137325000483542
13	402013	2	28	0	1	1	1	0.3492293999297544
13	402013	2	29	0	1	1	1	0.3874719000887126
13	402013	2	30	0	1	1	1	0.5232449999311939
13	402013	2	31	0	1	1	1	0.5129672000184655
13	402013	2	32	0	1	1	1	0.5353035000152886
13	402013	2	33	1	0	1	-1	0.5588383000576869
13	402013	2	34	1	1	2	1	0.5250477000372484
13	402013	2	35	1	1	2	1	0.4356046000029892
13	402013	2	36	1	1	2	1	0.5304550000000745
13	402013	2	37	1	1	2	1	0.5763092000270262
13	402013	2	38	1	0	1	-1	0.6558846000116318
13	402013	2	39	1	0	1	-1	0.7748366999439895
13	402013	2	40	1	1	2	1	0.4527278000023216
13	402013	2	41	1	1	2	1	0.7327459000516683
13	402013	2	42	1	1	2	1	0.5231457999907434
13	402013	2	43	1	1	2	1	0.4495249000610783
13	402013	2	44	1	1	2	1	0.4330041999928653
13	402013	2	45	1	1	2	1	0.4796520000090822
13	402013	2	46	1	1	2	-1	0.5435015000402927
13	402013	2	47	2	1	1	1	0.382365999976173
13	402013	2	48	2	1	1	-1	0.5234865000238642
13	402013	2	49	2	1	1	-1	0.4430189999984577
13	402013	2	50	2	1	1	-1	0.4331598000135273
13	402013	2	51	2	0	2	1	0.6489553999854252
13	402013	2	52	2	0	2	-1	0.4640470000449568
13	402013	2	53	2	0	2	1	0.7339734999695793
13	402013	2	54	2	0	2	-1	0.3890766999684274
13	402013	2	55	2	1	1	1	0.5387966999551281
13	402013	2	56	2	1	1	1	0.6174547000555322
13	402013	2	57	2	1	1	-1	0.4800936999963596
13	402013	2	58	2	0	2	-1	0.3843021000502631
13	402013	2	59	2	0	2	-1	0.5492901999969035
13	402013	2	60	2	1	1	1	0.4209569999948144
14	402014	2	1	0	0	2	-1	0.6255615999998554
14	402014	2	2	0	1	1	1	0.9968472000000476
14	402014	2	3	0	1	1	1	0.3774075000001176
14	402014	2	4	0	1	1	-1	0.5125802000002295
14	402014	2	5	0	1	1	1	0.4448057000008703
14	402014	2	6	0	1	1	1	0.4502886999998736
14	402014	2	7	0	1	1	1	0.3649328999999852
14	402014	2	8	1	0	1	-1	0.4573863000005076
14	402014	2	9	1	0	1	1	0.444319499998528
14	402014	2	10	1	0	1	-1	0.3865689000012935
14	402014	2	11	1	0	1	-1	0.6267789000012272
14	402014	2	12	1	1	2	1	0.5257845999985875
14	402014	2	13	1	1	2	-1	0.4165099000001646
14	402014	2	14	1	1	2	1	0.4535828000007313
14	402014	2	15	1	1	2	1	0.4249954000006255
14	402014	2	16	1	1	2	1	0.3715455000001384
14	402014	2	17	1	1	2	1	0.5258957000005466
14	402014	2	18	2	0	2	-1	0.3934566999996605
14	402014	2	19	2	1	1	-1	0.5053547999996226
14	402014	2	20	2	1	1	1	0.5128014999991137
14	402014	2	21	2	1	1	1	0.4242572000002838
14	402014	2	22	2	1	1	1	0.3873178000012558
14	402014	2	23	2	1	1	1	0.3920130999995308
14	402014	2	24	2	1	1	-1	0.4043031000001065
14	402014	2	25	3	0	1	-1	0.7918470999993588
14	402014	2	26	3	1	2	1	0.352262200000041
14	402014	2	27	3	1	2	1	0.4392211000013049
14	402014	2	28	3	1	2	1	0.3492741999998543
14	402014	2	29	3	1	2	-1	0.4430442999982915
14	402014	2	30	3	0	1	1	0.3554058999998233
14	402014	2	31	3	1	2	1	0.4219432999998389
14	402014	2	32	3	1	2	1	0.3590528000004269
14	402014	2	33	3	1	2	1	0.4596800999988772
14	402014	2	34	3	1	2	-1	0.501361700000416
14	402014	2	35	3	0	1	-1	0.908311600000161
14	402014	2	36	3	1	2	1	0.8513413999990007
14	402014	2	37	3	1	2	1	0.5304130999993504
14	402014	2	38	3	1	2	1	0.4845311999997648
14	402014	2	39	3	1	2	1	0.5073548000000301
14	402014	2	40	3	1	2	1	0.5440488999993249
14	402014	2	41	3	1	2	1	0.4500236000003497
14	402014	2	42	3	1	2	1	0.5617161999998643
14	402014	2	43	4	1	1	-1	0.946019000000888
14	402014	2	44	4	0	2	-1	0.5887268999995285
14	402014	2	45	4	1	1	1	0.5497188000008464
14	402014	2	46	4	1	1	1	0.4509168999993562
14	402014	2	47	4	1	1	1	0.607932200000505
14	402014	2	48	4	1	1	-1	0.609016899999915
14	402014	2	49	4	0	2	-1	0.5093261000001803
14	402014	2	50	4	1	1	1	0.5149191733332675
14	402014	2	51	4	1	1	1	0.4985230999991472
14	402014	2	52	4	1	1	1	0.4488389999987703
14	402014	2	53	4	1	1	1	0.5375825999999506
14	402014	2	54	4	1	1	-1	0.4103547999984585
14	402014	2	55	4	0	2	1	0.3634949999996024
14	402014	2	56	4	1	1	1	0.5595758999988902
14	402014	2	57	4	1	1	1	0.5048000000006141
14	402014	2	58	4	1	1	1	0.5494842000007338
14	402014	2	59	4	1	1	-1	0.438453999999183
14	402014	2	60	4	1	1	1	0.4885252000003675
15	402015	2	1	1	0	1	-1	0.4193946000013966
15	402015	2	2	1	0	1	-1	0.6518290000021807
15	402015	2	3	1	0	1	1	0.3867436000000452
15	402015	2	4	1	1	2	1	0.3511295000025711
15	402015	2	5	1	1	2	1	0.453833499999746
15	402015	2	6	1	0	1	-1	0.3751793000010366
15	402015	2	7	1	0	1	-1	0.2298733999996329
15	402015	2	8	1	1	2	-1	0.3066783000031137
15	402015	2	9	1	1	2	1	0.2489601999986916
15	402015	2	10	1	1	2	1	0.7281618000015442
15	402015	2	11	1	1	2	-1	0.4901922999997623
15	402015	2	12	1	1	2	1	0.5408454999997048
15	402015	2	13	1	0	1	-1	0.5878066000004765
15	402015	2	14	1	0	1	1	0.3511335000002873
15	402015	2	15	1	1	2	1	0.7685928999999305
15	402015	2	16	1	0	1	-1	0.5816545000016049
15	402015	2	17	1	0	1	-1	0.4827402000009897
15	402015	2	18	1	1	2	-1	0.3032010000024456
15	402015	2	19	1	0	1	-1	0.5846138999986579
15	402015	2	20	1	1	2	1	0.544654500001343
15	402015	2	21	1	1	2	1	0.4575623999990057
15	402015	2	22	1	1	2	1	0.4479820000015024
15	402015	2	23	1	1	2	1	0.3029461999976774
15	402015	2	24	1	1	2	1	0.7855965999988257
15	402015	2	25	1	1	2	-1	0.6323049000020546
15	402015	2	26	2	1	1	1	0.5294525999997859
15	402015	2	27	2	1	1	1	0.5779551999985415
15	402015	2	28	2	1	1	-1	0.3834066999988863
15	402015	2	29	2	0	2	-1	0.4202909999985422
15	402015	2	30	2	1	1	1	0.6660245999992185
15	402015	2	31	2	1	1	-1	0.6061706000000413
15	402015	2	32	2	0	2	-1	0.3592803000028652
15	402015	2	33	2	0	2	-1	0.4377003000008699
15	402015	2	34	2	1	1	1	0.4026804999994056
15	402015	2	35	2	1	1	-1	0.4656637000007322
15	402015	2	36	2	1	1	1	0.6181421000001137
15	402015	2	37	2	1	1	1	0.6191895000010845
15	402015	2	38	2	1	1	1	0.5859715000005963
15	402015	2	39	2	1	1	1	0.5384631000015361
15	402015	2	40	2	1	1	1	0.5675888000005216
15	402015	2	41	3	0	1	1	0.6843075999968278
15	402015	2	42	3	0	1	-1	0.7686825999990106
15	402015	2	43	3	1	2	1	0.511689490000208
15	402015	2	44	3	1	2	1	0.673653199999535
15	402015	2	45	3	1	2	1	0.6124890999999479
15	402015	2	46	3	1	2	1	0.4133385000022826
15	402015	2	47	3	1	2	1	0.5076332999997248
15	402015	2	48	3	0	1	-1	0.3453726999978244
15	402015	2	49	3	1	2	1	0.7797561999977916
15	402015	2	50	3	1	2	1	0.5010709000016504
15	402015	2	51	3	1	2	1	0.5151642999990145
15	402015	2	52	3	1	2	1	0.5738033000016003
15	402015	2	53	3	1	2	-1	0.3697508000004745
15	402015	2	54	3	1	2	-1	0.4763596000011603
15	402015	2	55	3	0	1	-1	0.2959535000009055
15	402015	2	56	3	0	1	-1	0.5396476999994775
15	402015	2	57	3	1	2	1	0.3678589999981341
15	402015	2	58	3	1	2	-1	0.5853711000017938
15	402015	2	59	3	1	2	1	0.5218074999975215
15	402015	2	60	3	1	2	1	0.3845748999992793
16	402016	2	1	0	0	2	-1	0.7624751999992441
16	402016	2	2	0	1	1	1	0.589625800000249
16	402016	2	3	0	1	1	-1	1.058241300000191
16	402016	2	4	0	1	1	1	0.722497800000383
16	402016	2	5	0	0	2	-1	0.7063912000003256
16	402016	2	6	0	1	1	1	0.5930372000002535
16	402016	2	7	0	1	1	1	0.9431471999996576
16	402016	2	8	0	1	1	1	0.9381335999996736
16	402016	2	9	0	1	1	-1	0.6980449000002409
16	402016	2	10	0	0	2	1	1.354211299999406
16	402016	2	11	0	0	2	-1	1.0483283000003212
16	402016	2	12	0	1	1	1	0.5827282000000196
16	402016	2	13	0	1	1	-1	0.6395724999993035
16	402016	2	14	0	0	2	-1	0.7987331000003906
16	402016	2	15	0	1	1	1	0.8571382000000085
16	402016	2	16	0	1	1	1	0.483476200000041
16	402016	2	17	0	1	1	1	0.6780931000002965
16	402016	2	18	0	1	1	-1	0.7740959000002476
16	402016	2	19	0	0	2	-1	0.5086332000000766
16	402016	2	20	0	0	2	-1	0.6533007999996698
16	402016	2	21	0	1	1	1	0.4785756999999648
16	402016	2	22	0	1	1	1	0.9536916000006386
16	402016	2	23	0	1	1	-1	0.6059006000004956
16	402016	2	24	0	0	2	1	0.550749399999404
16	402016	2	25	0	1	1	1	0.7062477186440662
16	402016	2	26	0	0	2	-1	1.5
16	402016	2	27	0	1	1	1	0.6865774999996574
16	402016	2	28	0	1	1	1	1.364851899999849
16	402016	2	29	0	1	1	1	0.9308346999996502
16	402016	2	30	0	1	1	1	0.7625843999994686
16	402016	2	31	0	1	1	1	0.487826299999142
16	402016	2	32	0	1	1	1	0.5936623000006875
16	402016	2	33	0	1	1	-1	0.537711500000114
16	402016	2	34	1	1	2	1	0.5994762999998784
16	402016	2	35	1	1	2	1	0.6277525000004971
16	402016	2	36	1	1	2	1	0.5436780999998518
16	402016	2	37	1	1	2	1	1.375234000000091
16	402016	2	38	1	1	2	1	0.4823021000001972
16	402016	2	39	1	1	2	1	0.6127829000006386
16	402016	2	40	2	0	2	-1	0.6033942000003663
16	402016	2	41	2	1	1	-1	0.459118199999466
16	402016	2	42	2	0	2	1	1.2339018000002395
16	402016	2	43	2	0	2	-1	0.5582461000003605
16	402016	2	44	2	1	1	1	0.4690799999998489
16	402016	2	45	2	1	1	1	0.5914573000000019
16	402016	2	46	2	1	1	-1	0.5756187999995745
16	402016	2	47	2	0	2	-1	0.4961591999999655
16	402016	2	48	2	1	1	1	0.5637770999992426
16	402016	2	49	2	1	1	1	0.4728645999994114
16	402016	2	50	2	1	1	1	0.5204619999994975
16	402016	2	51	2	1	1	-1	0.7324809000001551
16	402016	2	52	2	0	2	1	0.501783499999874
16	402016	2	53	2	0	2	-1	0.7843731000002663
16	402016	2	54	2	1	1	1	0.4433085000000574
16	402016	2	55	2	1	1	1	0.4893271999999342
16	402016	2	56	2	1	1	1	0.6334419000004345
16	402016	2	57	2	1	1	1	0.6805304999998043
16	402016	2	58	2	1	1	-1	0.6617819000002783
16	402016	2	59	2	0	2	-1	0.6386324000004606
16	402016	2	60	2	1	1	1	0.504418500000611
18	402018	2	1	0	0	2	-1	0.6275478999996267
18	402018	2	2	0	0	2	-1	0.4461960000007821
18	402018	2	3	0	1	1	1	0.7115493999990576
18	402018	2	4	0	1	1	1	0.8929680000001099
18	402018	2	5	0	1	1	-1	0.6641014000015275
18	402018	2	6	0	0	2	1	0.4561969999995199
18	402018	2	7	0	0	2	-1	0.4308459999992919
18	402018	2	8	0	1	1	1	0.5866132999981346
18	402018	2	9	0	1	1	-1	0.4935177000006661
18	402018	2	10	0	0	2	-1	0.7722181999997701
18	402018	2	11	0	0	2	1	0.6301748000005318
18	402018	2	12	0	1	1	1	0.6986633999986225
18	402018	2	13	0	0	2	-1	0.583318799999688
18	402018	2	14	0	1	1	1	0.7965971999983594
18	402018	2	15	0	1	1	-1	0.5226406000001589
18	402018	2	16	0	0	2	-1	0.3926929000008385
18	402018	2	17	0	0	2	-1	0.843295799997577
18	402018	2	18	0	0	2	-1	0.4919449000008171
18	402018	2	19	0	1	1	1	0.5043655999979819
18	402018	2	20	0	1	1	1	0.4190697999983968
18	402018	2	21	0	1	1	1	0.4869111999978486
18	402018	2	22	0	1	1	-1	1.0400196999980835
18	402018	2	23	0	1	1	1	0.7234850999993796
18	402018	2	24	0	1	1	1	0.5622622000009869
18	402018	2	25	1	0	1	-1	0.5394422999997914
18	402018	2	26	1	1	2	1	0.4583700000002864
18	402018	2	27	1	1	2	-1	0.4387108000009903
18	402018	2	28	1	0	1	-1	0.34913200000301
18	402018	2	29	1	0	1	-1	0.5040035999991233
18	402018	2	30	1	1	2	1	0.6712471999999252
18	402018	2	31	1	1	2	1	0.8594587000006868
18	402018	2	32	1	0	1	1	0.5643388999997114
18	402018	2	33	1	0	1	-1	0.4670069999992847
18	402018	2	34	1	1	2	1	0.3901432000020577
18	402018	2	35	1	0	1	1	0.4681574999995064
18	402018	2	36	1	0	1	-1	0.5583092999986548
18	402018	2	37	1	1	2	1	0.4677456000026723
18	402018	2	38	1	0	1	1	0.3594787000001815
18	402018	2	39	1	0	1	-1	0.4299265000008745
18	402018	2	40	1	1	2	1	0.3638967000006232
18	402018	2	41	1	0	1	-1	0.4644664999977976
18	402018	2	42	1	1	2	1	1.5
18	402018	2	43	1	1	2	-1	0.5287352000013925
18	402018	2	44	1	0	1	-1	0.6008297000007587
18	402018	2	45	1	0	1	-1	0.4654673999975784
18	402018	2	46	1	1	2	1	0.7779690000024857
18	402018	2	47	1	1	2	-1	0.4968283999987761
18	402018	2	48	1	1	2	1	0.3571067999982915
18	402018	2	49	1	1	2	-1	0.5163117999982205
18	402018	2	50	1	1	2	1	0.976600399997551
18	402018	2	51	1	0	1	-1	0.5400463000005402
18	402018	2	52	1	1	2	1	0.5883687999994436
18	402018	2	53	1	0	1	1	0.7846485000009125
18	402018	2	54	1	1	2	1	0.6398317999992287
18	402018	2	55	1	0	1	-1	0.566333200000372
18	402018	2	56	1	1	2	-1	1.054620499999146
18	402018	2	57	1	0	1	-1	0.6602698999995482
18	402018	2	58	1	1	2	1	0.3735091000016837
18	402018	2	59	1	1	2	1	1.0530118999995466
18	402018	2	60	1	1	2	1	0.4587774999999965
19	402019	2	1	1	1	2	1	0.8910935999883804
19	402019	2	2	1	1	2	1	0.6922392999986187
19	402019	2	3	1	1	2	-1	0.3861895000009099
19	402019	2	4	1	0	1	-1	0.6276417999906698
19	402019	2	5	1	1	2	1	0.3483049000060418
19	402019	2	6	1	1	2	-1	0.4137832999986131
19	402019	2	7	1	1	2	1	0.3742824000073597
19	402019	2	8	1	0	1	-1	0.6329364999983227
19	402019	2	9	1	1	2	1	0.4022373000043444
19	402019	2	10	1	1	2	-1	0.4011542999942321
19	402019	2	11	1	1	2	1	0.5611216000106651
19	402019	2	12	1	1	2	1	0.4736428000032902
19	402019	2	13	1	1	2	1	0.432654200005345
19	402019	2	14	1	1	2	1	0.3980555000016466
19	402019	2	15	2	0	2	1	0.5189169000077527
19	402019	2	16	2	1	1	1	0.3590811999893049
19	402019	2	17	2	1	1	1	0.4578590999881271
19	402019	2	18	2	1	1	-1	0.3782910000008996
19	402019	2	19	2	0	2	-1	0.6456309999921359
19	402019	2	20	2	1	1	1	0.4725231999909738
19	402019	2	21	2	1	1	-1	0.4765725000033853
19	402019	2	22	2	0	2	-1	0.4171069000003626
19	402019	2	23	2	1	1	1	0.6103971999982605
19	402019	2	24	2	1	1	1	0.5031001000024844
19	402019	2	25	2	1	1	1	0.3635685000044759
19	402019	2	26	2	0	2	-1	0.4282598999998299
19	402019	2	27	2	0	2	-1	0.4712524999922607
19	402019	2	28	2	1	1	1	0.4534351000038441
19	402019	2	29	2	1	1	1	0.6522060999996029
19	402019	2	30	2	1	1	1	0.7234492999996291
19	402019	2	31	2	1	1	1	0.3375532999925781
19	402019	2	32	2	1	1	1	0.5441446000040742
19	402019	2	33	2	1	1	-1	0.4850943000055849
19	402019	2	34	3	0	1	1	0.6457683000044199
19	402019	2	35	3	0	1	-1	0.398718899989035
19	402019	2	36	3	0	1	-1	0.3866842999996152
19	402019	2	37	3	0	1	-1	0.4995522999961395
19	402019	2	38	3	1	2	1	0.366608800002723
19	402019	2	39	3	1	2	1	0.3405867999972543
19	402019	2	40	3	1	2	1	0.8451924999972107
19	402019	2	41	3	1	2	1	0.6456690000050003
19	402019	2	42	3	1	2	1	0.6547247999988031
19	402019	2	43	3	1	2	1	0.673478900003829
19	402019	2	44	4	0	2	-1	0.4027327999938279
19	402019	2	45	4	1	1	1	0.6205281000002287
19	402019	2	46	4	1	1	1	0.5187186999974074
19	402019	2	47	4	1	1	-1	0.5282405000034487
19	402019	2	48	4	1	1	1	0.7590615999943111
19	402019	2	49	4	1	1	1	0.7190433000068879
19	402019	2	50	4	1	1	1	0.6682135000010021
19	402019	2	51	4	1	1	1	0.9328506000019844
19	402019	2	52	5	0	1	-1	0.3515843999921344
19	402019	2	53	5	0	1	-1	0.8923745000065537
19	402019	2	54	5	1	2	-1	0.3793169000127818
19	402019	2	55	5	0	1	1	0.2776904000056674
19	402019	2	56	5	0	1	-1	0.5065029999968829
19	402019	2	57	5	0	1	-1	0.5596730999968713
19	402019	2	58	5	1	2	1	0.3898176000075182
19	402019	2	59	5	1	2	1	0.5753018999967026
19	402019	2	60	5	0	1	-1	0.331739600005676
20	402020	2	1	0	0	2	1	0.829230599993025
20	402020	2	2	0	0	2	1	0.7429462000000058
20	402020	2	3	0	0	2	-1	1.076969800007646
20	402020	2	4	0	0	2	-1	0.6242019999917829
20	402020	2	5	0	1	1	1	0.6992432000115514
20	402020	2	6	0	1	1	-1	0.6876117999927374
20	402020	2	7	0	1	1	1	0.756769700004952
20	402020	2	8	0	1	1	1	0.9090924999909475
20	402020	2	9	0	1	1	1	0.7699731000029715
20	402020	2	10	0	1	1	1	0.6939502000022912
20	402020	2	11	0	1	1	1	0.6778166000003694
20	402020	2	12	1	0	1	-1	0.5830560000031255
20	402020	2	13	1	1	2	-1	0.6604819000058342
20	402020	2	14	1	1	2	1	0.682866200004355
20	402020	2	15	1	1	2	1	0.937993200001074
20	402020	2	16	1	1	2	1	0.7960827000060817
20	402020	2	17	1	1	2	1	0.9186876000021584
20	402020	2	18	1	1	2	1	1.4516378000116674
20	402020	2	19	1	1	2	-1	0.9028646999940976
20	402020	2	20	2	1	1	1	1.1706692000007024
20	402020	2	21	2	1	1	1	0.7277186999999685
20	402020	2	22	2	1	1	1	0.7963956999883521
20	402020	2	23	2	1	1	1	0.7968959999998333
20	402020	2	24	2	1	1	-1	0.9873824999958742
20	402020	2	25	2	0	2	-1	1.0209284000011394
20	402020	2	26	2	0	2	-1	1.182869899988873
20	402020	2	27	2	1	1	1	0.7479830999945989
20	402020	2	28	2	1	1	1	0.8572090000088792
20	402020	2	29	2	1	1	1	1.395402299996931
20	402020	2	30	2	1	1	1	0.9986850999994203
20	402020	2	31	2	1	1	1	0.950718499996583
20	402020	2	32	2	1	1	1	0.9660563000070396
20	402020	2	33	3	0	1	-1	0.947478600006434
20	402020	2	34	3	1	2	-1	0.699551599987899
20	402020	2	35	3	1	2	1	0.713258699994185
20	402020	2	36	3	1	2	-1	0.7861661000060849
20	402020	2	37	3	1	2	1	0.6322851000004448
20	402020	2	38	3	1	2	1	1.0470186000020476
20	402020	2	39	3	1	2	-1	0.9282680000032996
20	402020	2	40	3	1	2	1	0.6921365000016522
20	402020	2	41	4	0	2	-1	1.4263599999976575
20	402020	2	42	4	0	2	-1	1.3243837999907555
20	402020	2	43	4	1	1	-1	1.5
20	402020	2	44	4	1	1	1	0.9595790000021224
20	402020	2	45	4	0	2	-1	0.8896365000109654
20	402020	2	46	4	1	1	1	0.6890691000007791
20	402020	2	47	4	1	1	-1	1.0116256000037538
20	402020	2	48	4	1	1	-1	0.9036632000061218
20	402020	2	49	4	0	2	-1	0.8808474999968894
20	402020	2	50	4	0	2	-1	0.9996457000088412
20	402020	2	51	4	1	1	1	0.6806951999897137
20	402020	2	52	4	0	2	-1	1.2516084999952
20	402020	2	53	4	1	1	-1	0.8899613999965368
20	402020	2	54	4	1	1	1	0.8169373999990057
20	402020	2	55	4	1	1	1	0.8217981000052532
20	402020	2	56	4	1	1	1	0.6903421000024537
20	402020	2	57	4	1	1	1	0.4909972000023117
20	402020	2	58	4	1	1	1	1.095382100000279
20	402020	2	59	5	0	1	1	1.0180541000008816
20	402020	2	60	5	0	1	-1	0.8864815999986604
21	402021	2	1	0	0	2	-1	0.3380252999995718
21	402021	2	2	0	1	1	-1	0.4415675000018382
21	402021	2	3	0	0	2	-1	0.427066600001126
21	402021	2	4	0	0	2	1	0.4286700000011478
21	402021	2	5	0	0	2	-1	0.660282199998619
21	402021	2	6	0	0	2	-1	1.5
21	402021	2	7	0	1	1	1	0.3693061999983911
21	402021	2	8	0	1	1	1	0.5454734999984794
21	402021	2	9	0	1	1	1	0.3680196999994223
21	402021	2	10	0	1	1	-1	0.4021546000003582
21	402021	2	11	0	0	2	-1	0.4946544000013091
21	402021	2	12	0	1	1	1	0.4638763999973889
21	402021	2	13	0	1	1	1	0.4016268000013951
21	402021	2	14	0	1	1	1	0.5181590999997344
21	402021	2	15	0	1	1	1	0.4858714999973017
21	402021	2	16	0	1	1	-1	0.5114446000006865
21	402021	2	17	0	0	2	-1	0.5643574999994598
21	402021	2	18	0	1	1	1	0.3850474999999278
21	402021	2	19	0	1	1	1	0.418524000000616
21	402021	2	20	0	1	1	1	0.4392117999996117
21	402021	2	21	0	1	1	1	0.4524213000004238
21	402021	2	22	0	1	1	1	0.542561599999317
21	402021	2	23	0	1	1	1	0.5211691000004066
21	402021	2	24	0	1	1	1	0.622743799998716
21	402021	2	25	1	0	1	1	0.5621197000000393
21	402021	2	26	1	0	1	-1	0.4159064999985276
21	402021	2	27	1	1	2	1	0.404490100001567
21	402021	2	28	1	1	2	-1	0.407269899998937
21	402021	2	29	1	0	1	1	0.5544350999989547
21	402021	2	30	1	0	1	-1	0.5269321000014315
21	402021	2	31	1	1	2	1	0.3869983999975375
21	402021	2	32	1	1	2	1	0.564254399996571
21	402021	2	33	1	1	2	1	0.3483659999983501
21	402021	2	34	1	1	2	1	0.6258288999997603
21	402021	2	35	1	1	2	1	0.4807446999984677
21	402021	2	36	1	1	2	1	0.8218985000021348
21	402021	2	37	1	1	2	1	0.4362913000004482
21	402021	2	38	2	0	2	-1	0.6210270000010496
21	402021	2	39	2	1	1	1	0.6018745000001218
21	402021	2	40	2	1	1	1	0.5268680999979551
21	402021	2	41	2	1	1	1	0.435269600002357
21	402021	2	42	2	1	1	1	0.7040627999995195
21	402021	2	43	2	1	1	1	0.5181590999997344
21	402021	2	44	2	1	1	1	0.4461381000000983
21	402021	2	45	3	0	1	-1	0.5270399999972142
21	402021	2	46	3	0	1	-1	0.5415991000008944
21	402021	2	47	3	1	2	-1	0.430532200000016
21	402021	2	48	3	0	1	-1	0.5425030999977025
21	402021	2	49	3	1	2	-1	0.6012521000011475
21	402021	2	50	3	0	1	-1	0.4114516000008734
21	402021	2	51	3	1	2	1	0.4280175999992934
21	402021	2	52	3	1	2	-1	0.4543263000014121
21	402021	2	53	3	0	1	-1	0.4245801999968535
21	402021	2	54	3	0	1	1	0.4825719999971625
21	402021	2	55	3	1	2	1	0.4398939999991853
21	402021	2	56	3	1	2	1	1.5
21	402021	2	57	3	0	1	1	0.3669475999995484
21	402021	2	58	3	0	1	-1	0.4186990000016521
21	402021	2	59	3	0	1	-1	0.5181590999997344
21	402021	2	60	3	1	2	-1	0.4047857000005024
23	402023	2	1	1	0	1	-1	0.5638624670027639
23	402023	2	2	1	1	2	1	0.5464742113272223
23	402023	2	3	1	1	2	1	0.5771437281146063
23	402023	2	4	1	1	2	-1	0.5947975595481694
23	402023	2	5	1	0	1	-1	0.529458812879966
23	402023	2	6	1	1	2	1	0.5232003146102215
23	402023	2	7	1	1	2	1	0.5808049016814039
23	402023	2	8	1	1	2	1	0.7224346896964562
23	402023	2	9	1	1	2	1	0.449066651166504
23	402023	2	10	1	1	2	1	0.5804391553283494
23	402023	2	11	1	1	2	1	0.467001516781238
23	402023	2	12	2	0	2	1	0.484736659533155
23	402023	2	13	2	0	2	-1	0.43139365128809
23	402023	2	14	2	0	2	-1	0.4229623166866076
23	402023	2	15	2	1	1	-1	0.4167313344150898
23	402023	2	16	2	0	2	-1	0.3859396960633603
23	402023	2	17	2	1	1	-1	0.5474293307759581
23	402023	2	18	2	0	2	1	0.504351237694209
23	402023	2	19	2	0	2	-1	0.5759426084296138
23	402023	2	20	2	1	1	1	0.4926785803727398
23	402023	2	21	2	1	1	-1	0.4213357811240712
23	402023	2	22	2	1	1	1	0.5199274566984968
23	402023	2	23	2	1	1	1	0.5076265689531283
23	402023	2	24	2	1	1	1	0.5412934745036182
23	402023	2	25	2	1	1	1	0.5474293307759581
23	402023	2	26	3	0	1	-1	0.6806530381054472
23	402023	2	27	3	0	1	-1	0.5432582404228015
23	402023	2	28	3	1	2	-1	0.5468986997002503
23	402023	2	29	3	1	2	1	0.4416271291665907
23	402023	2	30	3	1	2	1	0.4272344072414853
23	402023	2	31	3	1	2	1	0.4068648395623313
23	402023	2	32	3	1	2	1	0.5365403177383996
23	402023	2	33	3	1	2	1	0.4951859370357852
23	402023	2	34	3	1	2	1	0.488856639178266
23	402023	2	35	4	0	2	-1	0.5855271415948664
23	402023	2	36	4	0	2	1	0.4831623734498862
23	402023	2	37	4	0	2	-1	0.7074644409822213
23	402023	2	38	4	0	2	-1	0.5221899519001454
23	402023	2	39	4	0	2	-1	0.4738189917261479
23	402023	2	40	4	0	2	-1	0.5104641175930738
23	402023	2	41	4	0	2	-1	0.9161043406638782
23	402023	2	42	4	1	1	1	0.386497126895847
23	402023	2	43	4	1	1	1	0.5430786135148082
23	402023	2	44	4	1	1	1	0.6747556486643589
23	402023	2	45	4	1	1	1	0.555408872271073
23	402023	2	46	4	1	1	1	0.6779768754313409
23	402023	2	47	4	1	1	1	0.5827273115137359
23	402023	2	48	4	1	1	-1	0.5000256609873759
23	402023	2	49	5	0	1	-1	0.6823615033263195
23	402023	2	50	5	1	2	1	0.3427061891215999
23	402023	2	51	5	1	2	1	0.5563719321980898
23	402023	2	52	5	1	2	-1	0.4009705418066005
23	402023	2	53	5	1	2	1	0.4706778396048321
23	402023	2	54	5	0	1	1	0.5474293307759581
23	402023	2	55	5	0	1	-1	0.5669099410661147
23	402023	2	56	5	0	1	-1	0.4206621029261441
23	402023	2	57	5	1	2	1	0.4333172977931099
23	402023	2	58	5	1	2	-1	0.4016099022974231
23	402023	2	59	5	1	2	1	0.498295863138992
23	402023	2	60	5	1	2	-1	0.4689072315122757
24	402024	2	1	0	0	2	-1	0.4482958938770025
24	402024	2	2	0	1	1	1	0.4442210893703304
24	402024	2	3	0	1	1	1	0.4138378258721786
24	402024	2	4	0	1	1	-1	0.3773902763041405
24	402024	2	5	0	0	2	1	0.4900076085705223
24	402024	2	6	0	0	2	-1	0.3118211686414724
24	402024	2	7	0	1	1	1	0.4931700649649428
24	402024	2	8	0	1	1	1	0.3559097495726746
24	402024	2	9	0	1	1	1	0.5764661180619441
24	402024	2	10	0	1	1	-1	0.4981556717539206
24	402024	2	11	0	1	1	1	0.8527545585729968
24	402024	2	12	0	0	2	-1	0.6942922747821285
24	402024	2	13	0	1	1	1	0.7689180837533058
24	402024	2	14	0	1	1	1	0.4375703158839314
24	402024	2	15	0	1	1	1	0.4991230513678601
24	402024	2	16	0	1	1	1	0.50644255035877
24	402024	2	17	0	1	1	1	0.5030945945145504
24	402024	2	18	0	1	1	1	0.5147016040446033
24	402024	2	19	0	1	1	1	0.393317567941267
24	402024	2	20	1	0	1	-1	0.4548529901421716
24	402024	2	21	1	0	1	-1	0.5915119781620888
24	402024	2	22	1	1	2	1	0.4571361791622621
24	402024	2	23	1	1	2	1	0.373792514541492
24	402024	2	24	1	1	2	-1	0.4273749571420921
24	402024	2	25	1	0	1	1	0.7329528327463777
24	402024	2	26	1	0	1	-1	0.4752854450016457
24	402024	2	27	1	1	2	1	0.6068626756859885
24	402024	2	28	1	0	1	-1	0.4844305677124794
24	402024	2	29	1	1	2	1	0.5501085017185687
24	402024	2	30	1	1	2	1	0.4174080718839832
24	402024	2	31	1	1	2	1	0.6309204080625932
24	402024	2	32	1	1	2	1	0.3815671055072016
24	402024	2	33	1	1	2	1	0.3332723246257956
24	402024	2	34	1	1	2	1	0.4514846293623122
24	402024	2	35	2	0	2	-1	0.4601245752437535
24	402024	2	36	2	1	1	1	0.442724418004218
24	402024	2	37	2	1	1	-1	0.3293403546922491
24	402024	2	38	2	1	1	1	0.6578570918463811
24	402024	2	39	2	0	2	-1	0.5265309037440602
24	402024	2	40	2	0	2	-1	0.8571481129602034
24	402024	2	41	2	0	2	-1	0.7798112295804458
24	402024	2	42	2	1	1	1	0.3624136693288164
24	402024	2	43	2	1	1	1	0.657051715081252
24	402024	2	44	2	1	1	1	0.5796832967953378
24	402024	2	45	2	1	1	1	0.5142675353399682
24	402024	2	46	2	1	1	1	0.4338541436391097
24	402024	2	47	2	1	1	1	0.3895438908693904
24	402024	2	48	2	1	1	-1	0.6221125851789111
24	402024	2	49	3	0	1	-1	0.3617557646266505
24	402024	2	50	3	1	2	1	0.3643233861312183
24	402024	2	51	3	1	2	1	0.524920768548327
24	402024	2	52	3	1	2	1	0.5105306489913346
24	402024	2	53	3	1	2	1	0.5221923808567226
24	402024	2	54	3	1	2	1	0.4277391543873818
24	402024	2	55	3	1	2	1	0.3493804782247025
24	402024	2	56	4	0	2	1	0.4296754594433878
24	402024	2	57	4	0	2	-1	0.4433099779216718
24	402024	2	58	4	1	1	-1	0.4049728073277947
24	402024	2	59	4	1	1	-1	0.404497619578251
24	402024	2	60	4	0	2	-1	0.4551701941963983
25	402025	2	1	0	0	2	-1	0.4792160822535152
25	402025	2	2	0	1	1	1	0.6131918903611222
25	402025	2	3	0	1	1	1	0.5548639777989592
25	402025	2	4	0	1	1	-1	0.7053998303272238
25	402025	2	5	0	1	1	1	0.3769434393007032
25	402025	2	6	0	1	1	1	0.399553930285947
25	402025	2	7	0	1	1	1	0.5507677914665692
25	402025	2	8	0	1	1	1	0.4293890934904993
25	402025	2	9	1	0	1	1	0.8039030790805555
25	402025	2	10	1	0	1	-1	0.3135544224833211
25	402025	2	11	1	0	1	-1	0.4481661921945488
25	402025	2	12	1	1	2	1	0.4877420487791823
25	402025	2	13	1	1	2	1	0.4453468757801602
25	402025	2	14	1	1	2	1	0.4528739157422023
25	402025	2	15	1	1	2	-1	0.4754615281872247
25	402025	2	16	1	1	2	1	0.3210242660934455
25	402025	2	17	1	1	2	1	0.4556409825163428
25	402025	2	18	2	0	2	-1	0.3662999710613803
25	402025	2	19	2	0	2	-1	0.4375202505998459
25	402025	2	20	2	1	1	1	0.3489663846212352
25	402025	2	21	2	1	1	-1	0.4356751271925532
25	402025	2	22	2	1	1	1	0.4421930379976402
25	402025	2	23	2	1	1	-1	0.3038319701026921
25	402025	2	24	2	1	1	1	0.3584569598997404
25	402025	2	25	2	1	1	1	0.4769647101602459
25	402025	2	26	3	0	1	-1	0.4205793093897227
25	402025	2	27	3	0	1	1	0.4101510231039356
25	402025	2	28	3	0	1	-1	0.4817209733146228
25	402025	2	29	3	0	1	-1	0.5523192038763227
25	402025	2	30	3	1	2	1	0.558019052259624
25	402025	2	31	3	1	2	1	0.3884698955498606
25	402025	2	32	3	0	1	-1	0.795951240264003
25	402025	2	33	3	1	2	1	0.4496443314401404
25	402025	2	34	3	1	2	1	0.4248974794027162
25	402025	2	35	3	1	2	-1	1.0075378608935353
25	402025	2	36	3	0	1	-1	0.3580460736711757
25	402025	2	37	3	0	1	-1	0.4136526765423696
25	402025	2	38	3	1	2	1	0.723263024073276
25	402025	2	39	3	1	2	1	0.345861086446348
25	402025	2	40	3	1	2	-1	0.305403787697287
25	402025	2	41	3	1	2	1	0.5198245648743978
25	402025	2	42	3	1	2	-1	0.4625493743642437
25	402025	2	43	3	1	2	1	0.5801098293632094
25	402025	2	44	4	0	2	-1	0.3636908898879483
25	402025	2	45	4	0	2	1	1.1862823360352197
25	402025	2	46	4	1	1	1	0.7768550786649939
25	402025	2	47	4	0	2	1	1.278438953869227
25	402025	2	48	4	1	1	-1	0.6290538301154811
25	402025	2	49	4	0	2	-1	0.9716633812258806
25	402025	2	50	4	1	1	1	1.106242378972638
25	402025	2	51	4	0	2	-1	1.097765570392767
25	402025	2	52	4	1	1	1	0.6874213163700915
25	402025	2	53	4	1	1	1	0.5340676932737551
25	402025	2	54	4	0	2	1	0.7966419248641614
25	402025	2	55	4	0	2	-1	0.6752477684149198
25	402025	2	56	4	1	1	1	0.649781169848211
25	402025	2	57	4	1	1	1	0.5138767625749097
25	402025	2	58	4	1	1	1	0.4876703214622466
25	402025	2	59	4	1	1	1	1.2301856377171134
25	402025	2	60	4	1	1	-1	0.5967737547271099
27	402027	2	1	0	0	2	-1	0.5209690284364115
27	402027	2	2	0	1	1	1	0.5335731377799675
27	402027	2	3	0	1	1	1	0.669316881944269
27	402027	2	4	0	1	1	-1	0.3719558644397693
27	402027	2	5	0	0	2	-1	0.516645746897666
27	402027	2	6	0	1	1	1	0.5999035423456007
27	402027	2	7	0	1	1	-1	0.4792974667498129
27	402027	2	8	0	0	2	1	0.475839212509527
27	402027	2	9	0	0	2	-1	0.5666401820330975
27	402027	2	10	0	1	1	1	0.4609300125521258
27	402027	2	11	0	1	1	1	0.6465324709856759
27	402027	2	12	0	1	1	1	0.3862544750786583
27	402027	2	13	0	1	1	1	0.5999097255285051
27	402027	2	14	0	1	1	1	0.3742189094105015
27	402027	2	15	0	1	1	1	0.4978377409120185
27	402027	2	16	1	0	1	-1	0.4255745722780375
27	402027	2	17	1	1	2	1	0.4441964644556719
27	402027	2	18	1	1	2	1	0.4238222582221169
27	402027	2	19	1	1	2	1	0.7904556387534285
27	402027	2	20	1	1	2	1	0.9831409332896328
27	402027	2	21	1	1	2	1	0.6764080653438214
27	402027	2	22	1	1	2	-1	0.4521328889686629
27	402027	2	23	2	1	1	1	0.4037470088851478
27	402027	2	24	2	1	1	1	0.8544129376923593
27	402027	2	25	2	1	1	1	0.4981048544168516
27	402027	2	26	2	1	1	-1	0.431706434838361
27	402027	2	27	2	0	2	1	0.4713842291735091
27	402027	2	28	2	0	2	-1	0.4030804617600552
27	402027	2	29	2	1	1	1	1.0067347229005463
27	402027	2	30	2	1	1	1	0.4544166476021019
27	402027	2	31	2	1	1	1	0.3560465346349701
27	402027	2	32	2	1	1	1	0.4706462662848025
27	402027	2	33	2	1	1	1	0.536285081834194
27	402027	2	34	2	1	1	1	0.3929793048864667
27	402027	2	35	2	1	1	1	0.3926822029443428
27	402027	2	36	3	0	1	-1	0.6093291864785897
27	402027	2	37	3	1	2	1	0.7709523338421604
27	402027	2	38	3	1	2	1	0.6566228072888407
27	402027	2	39	3	1	2	-1	0.3992233922181185
27	402027	2	40	3	0	1	-1	0.3166491476481496
27	402027	2	41	3	1	2	1	0.4329291592725894
27	402027	2	42	3	1	2	1	0.5993065560292052
27	402027	2	43	3	1	2	1	0.5665817509539011
27	402027	2	44	3	1	2	-1	0.5108873485896765
27	402027	2	45	3	0	1	-1	0.5196269685707193
27	402027	2	46	3	1	2	1	0.8912208076476418
27	402027	2	47	3	1	2	-1	0.4358534956627409
27	402027	2	48	3	0	1	-1	0.357614589838704
27	402027	2	49	3	1	2	1	0.6572167020140114
27	402027	2	50	3	1	2	1	0.6207943535173399
27	402027	2	51	3	1	2	1	0.7955100816798222
27	402027	2	52	3	1	2	1	0.4091783168137226
27	402027	2	53	3	1	2	-1	0.4088425699783329
27	402027	2	54	3	0	1	-1	0.3525075898569412
27	402027	2	55	3	1	2	1	0.7571357023166456
27	402027	2	56	3	1	2	1	0.5708054832466587
27	402027	2	57	3	1	2	1	0.3405190163789484
27	402027	2	58	3	1	2	1	0.3101503131783829
27	402027	2	59	3	1	2	1	0.8707631284432864
27	402027	2	60	3	1	2	1	0.4354373674477756
28	402028	2	1	1	1	2	1	0.4115007558962134
28	402028	2	2	1	1	2	1	0.4314341628096372
28	402028	2	3	1	1	2	-1	0.591917318221931
28	402028	2	4	1	0	1	-1	0.4929242526827693
28	402028	2	5	1	0	1	-1	0.4216093638410711
28	402028	2	6	1	0	1	1	0.2941825343086748
28	402028	2	7	1	1	2	1	0.4647817175077762
28	402028	2	8	1	0	1	-1	0.3784085674446942
28	402028	2	9	1	1	2	1	0.2899773385643129
28	402028	2	10	1	1	2	1	0.5405951950333474
28	402028	2	11	1	1	2	1	0.3381998225422649
28	402028	2	12	1	1	2	1	0.4008773963769272
28	402028	2	13	1	1	2	1	0.4854901888043059
28	402028	2	14	1	1	2	1	0.4020899223082779
28	402028	2	15	1	1	2	-1	0.6376875442483652
28	402028	2	16	2	1	1	1	0.4603789684560979
28	402028	2	17	2	1	1	-1	0.480632222108837
28	402028	2	18	2	0	2	-1	0.4645773626789378
28	402028	2	19	2	0	2	-1	0.4771855300705283
28	402028	2	20	2	0	2	-1	0.3767465227215325
28	402028	2	21	2	1	1	1	0.5144390135319554
28	402028	2	22	2	1	1	1	0.3780128425105431
28	402028	2	23	2	1	1	1	0.5636189663537152
28	402028	2	24	2	1	1	1	0.6122068775753178
28	402028	2	25	2	1	1	-1	0.499817286378402
28	402028	2	26	2	0	2	1	0.4271210701886048
28	402028	2	27	2	0	2	-1	0.5317451778751092
28	402028	2	28	2	1	1	1	0.7473283929548415
28	402028	2	29	2	1	1	1	0.5748708483661176
28	402028	2	30	2	1	1	1	0.4955570601346153
28	402028	2	31	2	1	1	1	0.4492142695939947
28	402028	2	32	2	1	1	1	0.4423972892841448
28	402028	2	33	2	1	1	1	0.4791316929299682
28	402028	2	34	3	0	1	-1	0.4527216909818889
28	402028	2	35	3	1	2	-1	0.3793159523520444
28	402028	2	36	3	0	1	-1	0.5979629440698773
28	402028	2	37	3	0	1	-1	0.3635880503434237
28	402028	2	38	3	1	2	1	0.2362292360344327
28	402028	2	39	3	1	2	-1	0.4367458425695076
28	402028	2	40	3	1	2	1	0.3714029994716838
28	402028	2	41	3	0	1	-1	0.610909950936275
28	402028	2	42	3	0	1	-1	0.492618802499237
28	402028	2	43	3	1	2	1	0.4731754143517719
28	402028	2	44	3	1	2	1	0.3838847203801379
28	402028	2	45	3	1	2	1	0.5604763538894986
28	402028	2	46	3	1	2	-1	0.6420198047962913
28	402028	2	47	3	0	1	1	0.5387124099961511
28	402028	2	48	3	0	1	-1	0.4082888915681906
28	402028	2	49	3	0	1	-1	0.3739093604403933
28	402028	2	50	3	1	2	1	0.3775528122750984
28	402028	2	51	3	1	2	-1	0.4961209681655418
28	402028	2	52	3	1	2	-1	0.4497172730843886
28	402028	2	53	3	0	1	-1	0.4081089603873806
28	402028	2	54	3	1	2	1	0.5466479315641664
28	402028	2	55	3	1	2	1	0.4913051812145568
28	402028	2	56	3	1	2	1	0.4449132342165285
28	402028	2	57	3	1	2	1	0.5765056870004628
28	402028	2	58	3	1	2	1	0.5241460225006449
28	402028	2	59	3	1	2	1	0.4127519268404285
28	402028	2	60	3	1	2	1	0.482347885499621
29	402029	2	1	0	0	2	1	0.3509005806008645
29	402029	2	2	0	1	1	1	0.3686490981835959
29	402029	2	3	0	0	2	-1	0.8362631315339968
29	402029	2	4	0	0	2	-1	0.6799003270916728
29	402029	2	5	0	1	1	1	0.4016230855322646
29	402029	2	6	0	1	1	-1	0.5092661180115101
29	402029	2	7	0	0	2	-1	0.8808812890692934
29	402029	2	8	0	0	2	-1	0.4645861286480794
29	402029	2	9	0	1	1	1	0.4582394004792149
29	402029	2	10	0	1	1	1	0.7458782902267558
29	402029	2	11	0	1	1	1	0.6254759505100083
29	402029	2	12	0	1	1	1	0.581188593263505
29	402029	2	13	0	1	1	1	0.5658682116372802
29	402029	2	14	0	1	1	1	0.3782163372070499
29	402029	2	15	0	1	1	1	0.467806330343592
29	402029	2	16	1	0	1	-1	0.5065158382240043
29	402029	2	17	1	1	2	-1	0.9361716204257392
29	402029	2	18	1	0	1	-1	0.533846743626782
29	402029	2	19	1	1	2	-1	0.5424617724711425
29	402029	2	20	1	0	1	1	0.4041504615743179
29	402029	2	21	1	0	1	-1	0.4428479122470889
29	402029	2	22	1	1	2	1	0.7485203643136629
29	402029	2	23	1	1	2	1	0.5650832565588644
29	402029	2	24	1	1	2	1	0.7656876626951998
29	402029	2	25	1	1	2	1	0.6260259446353302
29	402029	2	26	1	1	2	1	0.5207501437580504
29	402029	2	27	1	1	2	1	0.398392063267238
29	402029	2	28	2	0	2	-1	0.7280348607855558
29	402029	2	29	2	1	1	1	0.590692454661621
29	402029	2	30	2	1	1	1	0.4913506544908159
29	402029	2	31	2	1	1	1	0.4309703269045712
29	402029	2	32	2	1	1	1	0.5216943157993228
29	402029	2	33	2	1	1	1	0.4463247160383616
29	402029	2	34	2	1	1	1	0.5898759653482557
29	402029	2	35	2	1	1	1	0.6616308763423149
29	402029	2	36	3	0	1	-1	0.6232917411234666
29	402029	2	37	3	1	2	1	0.4519371912265342
29	402029	2	38	3	1	2	1	0.4697027125639579
29	402029	2	39	3	1	2	-1	0.4193351223329955
29	402029	2	40	3	0	1	-1	0.7368264195029042
29	402029	2	41	3	0	1	-1	0.8535871736057743
29	402029	2	42	3	1	2	-1	0.4572881177773524
29	402029	2	43	3	1	2	1	0.7288501134607941
29	402029	2	44	3	1	2	-1	0.4705281674887374
29	402029	2	45	3	0	1	-1	0.8242025239760551
29	402029	2	46	3	1	2	-1	0.9818548312305212
29	402029	2	47	3	0	1	1	0.6425001082061499
29	402029	2	48	3	0	1	-1	0.4832695434961351
29	402029	2	49	3	0	1	-1	0.5745166296710522
29	402029	2	50	3	1	2	1	0.6791836961820081
29	402029	2	51	3	1	2	1	0.5797955221387383
29	402029	2	52	3	1	2	1	0.5014647960488219
29	402029	2	53	3	1	2	1	0.6131176226899697
29	402029	2	54	3	1	2	-1	0.6008053595814999
29	402029	2	55	3	0	1	-1	0.4775145459389023
29	402029	2	56	3	0	1	-1	0.6841562119352602
29	402029	2	57	3	1	2	1	0.7287629305828887
29	402029	2	58	3	1	2	1	0.3444434826160432
29	402029	2	59	3	1	2	1	0.9550726833167572
29	402029	2	60	3	1	2	-1	0.3637353226695268
30	402030	2	1	0	0	2	-1	1.5
30	402030	2	2	0	1	1	1	0.4163070999998126
30	402030	2	3	0	1	1	1	0.467753299999913
30	402030	2	4	0	1	1	-1	0.4306510000001253
30	402030	2	5	0	0	2	-1	0.4414630000001125
30	402030	2	6	0	0	2	1	0.4980394305084624
30	402030	2	7	0	0	2	-1	0.6080578000000969
30	402030	2	8	0	1	1	1	0.6552131999997073
30	402030	2	9	0	1	1	1	0.3996314999999413
30	402030	2	10	0	1	1	-1	0.919183399999838
30	402030	2	11	0	1	1	1	0.8616141000002244
30	402030	2	12	0	1	1	1	0.792938999999933
30	402030	2	13	0	1	1	1	0.4611073999999462
30	402030	2	14	0	1	1	1	0.4232564999997521
30	402030	2	15	1	0	1	-1	0.5557615000002443
30	402030	2	16	1	0	1	-1	0.3229731999999785
30	402030	2	17	1	1	2	1	0.65386559999979
30	402030	2	18	1	1	2	-1	0.5523355999998785
30	402030	2	19	1	0	1	-1	0.5729513999999654
30	402030	2	20	1	1	2	1	0.4956695999999283
30	402030	2	21	1	1	2	1	0.4197273999998288
30	402030	2	22	1	1	2	1	0.4253555000000233
30	402030	2	23	1	1	2	1	0.437286800000038
30	402030	2	24	1	1	2	1	0.4158852999998998
30	402030	2	25	1	1	2	1	0.4812033000002884
30	402030	2	26	1	1	2	1	0.3867344999998749
30	402030	2	27	2	0	2	1	0.3774538999996366
30	402030	2	28	2	0	2	-1	0.3137996999998904
30	402030	2	29	2	1	1	1	0.4462318999999297
30	402030	2	30	2	1	1	1	0.6111084999997729
30	402030	2	31	2	1	1	-1	0.4986306000000695
30	402030	2	32	2	0	2	1	0.4104113000003053
30	402030	2	33	2	0	2	-1	0.520864999999958
30	402030	2	34	2	1	1	-1	0.4998015999999552
30	402030	2	35	2	0	2	-1	0.5213982000000215
30	402030	2	36	2	0	2	-1	0.4035930000000007
30	402030	2	37	2	1	1	1	0.3019736000001103
30	402030	2	38	2	1	1	1	0.724880000000212
30	402030	2	39	2	1	1	1	0.4017206999997142
30	402030	2	40	2	1	1	1	0.3224337999999989
30	402030	2	41	2	1	1	1	0.4167597000000569
30	402030	2	42	2	1	1	1	0.3582854000001134
30	402030	2	43	3	0	1	-1	0.3293055999997705
30	402030	2	44	3	1	2	1	0.5636312000001453
30	402030	2	45	3	1	2	1	0.4692733000001681
30	402030	2	46	3	1	2	-1	0.4989247000003161
30	402030	2	47	3	0	1	1	0.9975331000000552
30	402030	2	48	3	0	1	-1	0.3884708000000501
30	402030	2	49	3	1	2	1	0.3941075999996428
30	402030	2	50	3	1	2	1	0.5457400999998754
30	402030	2	51	3	1	2	1	0.4303735999997116
30	402030	2	52	3	1	2	1	0.3813439999998991
30	402030	2	53	3	1	2	1	0.4857351000000562
30	402030	2	54	3	1	2	1	0.3896970000000692
30	402030	2	55	3	1	2	-1	0.3626719000003504
30	402030	2	56	4	1	1	1	0.6777173999998922
30	402030	2	57	4	1	1	1	0.3498833999997259
30	402030	2	58	4	1	1	1	0.317118500000106
30	402030	2	59	4	1	1	1	0.4457329000001664
30	402030	2	60	4	1	1	1	0.4046462000001156
33	402033	2	1	0	0	2	-1	0.5498287000009441
33	402033	2	2	0	1	1	1	1.1966284000009182
33	402033	2	3	0	1	1	1	0.4389480000008916
33	402033	2	4	0	1	1	-1	0.5598217999995541
33	402033	2	5	0	1	1	1	0.4688160000005155
33	402033	2	6	0	1	1	1	0.4658089999993535
33	402033	2	7	0	1	1	1	0.515050699999847
33	402033	2	8	0	1	1	-1	0.7217354000003979
33	402033	2	9	1	0	1	-1	0.7919645000001765
33	402033	2	10	1	0	1	1	0.7069249999985914
33	402033	2	11	1	1	2	1	1.005179899999348
33	402033	2	12	1	0	1	-1	0.7004634000004444
33	402033	2	13	1	0	1	-1	0.9686523999989732
33	402033	2	14	1	0	1	1	0.1490132999988418
33	402033	2	15	1	1	2	1	0.3141056000004028
33	402033	2	16	1	0	1	-1	0.525836499999059
33	402033	2	17	1	0	1	-1	0.4053699999985838
33	402033	2	18	1	1	2	1	0.2533557000006112
33	402033	2	19	1	0	1	-1	0.3776832000003196
33	402033	2	20	1	1	2	1	0.3979888000012579
33	402033	2	21	1	1	2	1	0.5091314000001148
33	402033	2	22	1	1	2	1	0.1293430999994598
33	402033	2	23	1	0	1	-1	0.3799121000010927
33	402033	2	24	1	0	1	-1	0.3088274000001547
33	402033	2	25	1	1	2	1	0.9411792999999308
33	402033	2	26	1	0	1	1	0.7801232999991043
33	402033	2	27	1	1	2	1	0.2509006000000227
33	402033	2	28	1	0	1	-1	0.333924599999591
33	402033	2	29	1	1	2	1	0.1866275000011228
33	402033	2	30	1	0	1	-1	0.4336383999998361
33	402033	2	31	1	0	1	-1	0.6397628000013356
33	402033	2	32	1	1	2	1	0.4991514000012103
33	402033	2	33	1	0	1	-1	0.3634545000004436
33	402033	2	34	1	1	2	1	0.7344214000004285
33	402033	2	35	1	0	1	-1	0.4077342000000499
33	402033	2	36	1	0	1	-1	0.2520542000002024
33	402033	2	37	1	1	2	1	0.6605589000009786
33	402033	2	38	1	0	1	-1	1.02410830000008
33	402033	2	39	1	1	2	1	0.1339387999996688
33	402033	2	40	1	0	1	-1	0.4810512000003655
33	402033	2	41	1	1	2	-1	0.2593493000003946
33	402033	2	42	1	0	1	1	0.3483544999999139
33	402033	2	43	1	1	2	1	0.2564387999991595
33	402033	2	44	1	0	1	-1	1.1994146999986697
33	402033	2	45	1	0	1	-1	0.3084930999993958
33	402033	2	46	1	0	1	-1	0.3441153999992821
33	402033	2	47	1	1	2	1	0.3283948999996937
33	402033	2	48	1	1	2	1	0.2893694000013056
33	402033	2	49	1	1	2	1	0.1728516000002855
33	402033	2	50	1	1	2	1	0.6717613999990135
33	402033	2	51	1	1	2	1	0.454633700001068
33	402033	2	52	1	1	2	1	0.5333448000001226
33	402033	2	53	2	0	2	-1	0.7504322000004322
33	402033	2	54	2	1	1	-1	0.4648271000005479
33	402033	2	55	2	0	2	-1	0.6533008999995218
33	402033	2	56	2	1	1	1	0.8161797999982809
33	402033	2	57	2	0	2	-1	0.3393734000001132
33	402033	2	58	2	1	1	1	0.8168282999995427
33	402033	2	59	2	1	1	1	0.5293136000000231
33	402033	2	60	2	1	1	1	0.4040753999997832
34	402034	2	1	0	0	2	-1	0.248662999998487
34	402034	2	2	0	1	1	1	0.369813699999213
34	402034	2	3	0	1	1	1	0.3402597000022069
34	402034	2	4	0	1	1	-1	0.3228837999995448
34	402034	2	5	0	0	2	-1	0.2760591999976896
34	402034	2	6	0	0	2	1	0.3506264999996347
34	402034	2	7	0	0	2	-1	0.3389380000007804
34	402034	2	8	0	1	1	1	0.4097091000003274
34	402034	2	9	0	1	1	1	0.4337795000028563
34	402034	2	10	0	1	1	-1	0.3402572999984841
34	402034	2	11	0	1	1	1	0.2853221000004851
34	402034	2	12	0	1	1	1	0.3000872000011441
34	402034	2	13	0	1	1	1	0.3648716999996395
34	402034	2	14	1	0	1	-1	0.3615094000015233
34	402034	2	15	1	1	2	1	0.3502179000024625
34	402034	2	16	1	1	2	1	0.3422886000007565
34	402034	2	17	1	1	2	1	0.3629851000005146
34	402034	2	18	1	1	2	-1	0.4458956000016769
34	402034	2	19	1	1	2	1	0.2892414000016288
34	402034	2	20	1	1	2	1	0.4631977999997616
34	402034	2	21	1	1	2	1	0.4799855999990541
34	402034	2	22	2	0	2	1	0.5723567999993975
34	402034	2	23	2	0	2	-1	0.5054589999999735
34	402034	2	24	2	1	1	-1	0.3660745000015595
34	402034	2	25	2	1	1	1	0.6059559999994235
34	402034	2	26	2	1	1	1	0.3643823999991582
34	402034	2	27	2	1	1	-1	0.339029799997661
34	402034	2	28	2	1	1	1	0.2721490000003541
34	402034	2	29	2	1	1	1	0.4064527000009548
34	402034	2	30	2	1	1	1	0.3745944000002055
34	402034	2	31	3	0	1	-1	0.4051819000014802
34	402034	2	32	3	1	2	1	0.419977800000197
34	402034	2	33	3	1	2	1	0.4147597999981371
34	402034	2	34	3	1	2	1	0.3216879999999946
34	402034	2	35	3	1	2	1	0.340218500001356
34	402034	2	36	3	1	2	1	0.4728480000012496
34	402034	2	37	3	1	2	1	0.446155000001454
34	402034	2	38	4	0	2	-1	0.4338543999983812
34	402034	2	39	4	1	1	1	0.3374457999998412
34	402034	2	40	4	1	1	-1	0.2874966999988828
34	402034	2	41	4	1	1	-1	0.3501089999990654
34	402034	2	42	4	0	2	1	0.3918413999999757
34	402034	2	43	4	0	2	-1	0.3947019000006548
34	402034	2	44	4	0	2	-1	0.3595758999981626
34	402034	2	45	4	1	1	1	0.3540224000025773
34	402034	2	46	4	1	1	1	0.3373105999999097
34	402034	2	47	4	1	1	1	0.3541212999989511
34	402034	2	48	4	1	1	-1	0.4547267999987525
34	402034	2	49	4	1	1	-1	0.275522700001602
34	402034	2	50	4	0	2	-1	0.3924624000028416
34	402034	2	51	4	0	2	1	0.37947731000034157
34	402034	2	52	4	0	2	-1	0.4035423000023002
34	402034	2	53	4	1	1	1	0.2744742000031692
34	402034	2	54	4	1	1	-1	0.3777470999993966
34	402034	2	55	4	1	1	1	0.3404211000015493
34	402034	2	56	4	1	1	1	0.3565970000017842
34	402034	2	57	4	1	1	1	0.3578101000020979
34	402034	2	58	4	1	1	1	0.3882067999984429
34	402034	2	59	4	1	1	1	0.4245747000022675
34	402034	2	60	5	0	1	-1	0.369164699997782
35	402035	2	1	0	0	2	-1	0.3198673000006238
35	402035	2	2	0	0	2	-1	0.6100980000010168
35	402035	2	3	0	0	2	1	0.8127860000022338
35	402035	2	4	0	0	2	-1	1.1495576999986952
35	402035	2	5	0	1	1	-1	0.0934091999988595
35	402035	2	6	0	1	1	1	0.2365167999996629
35	402035	2	7	0	1	1	1	0.7193920999998227
35	402035	2	8	0	0	2	-1	0.598781599997892
35	402035	2	9	0	1	1	1	0.262290299997403
35	402035	2	10	0	1	1	1	0.5541980999987572
35	402035	2	11	0	1	1	1	0.7850795000013022
35	402035	2	12	0	1	1	1	0.2064071999993757
35	402035	2	13	0	0	2	-1	0.6363134999992326
35	402035	2	14	0	1	1	1	0.4015900999984296
35	402035	2	15	0	1	1	-1	0.7011127000005217
35	402035	2	16	0	0	2	-1	0.3445934999981546
35	402035	2	17	0	1	1	1	0.7849830999984988
35	402035	2	18	0	0	2	1	1.0350810999989335
35	402035	2	19	0	0	2	-1	1.5
35	402035	2	20	0	1	1	1	0.0853449999995064
35	402035	2	21	0	1	1	1	1.5
35	402035	2	22	0	1	1	1	0.6680660999991233
35	402035	2	23	0	1	1	1	0.7904132000003301
35	402035	2	24	0	0	2	-1	0.4680279999993217
35	402035	2	25	0	0	2	-1	0.6580374000004667
35	402035	2	26	0	1	1	1	0.3166697000015119
35	402035	2	27	0	0	2	-1	0.4883525999975973
35	402035	2	28	0	0	2	-1	0.3547161000024061
35	402035	2	29	0	0	2	-1	0.0217331999992893
35	402035	2	30	0	1	1	-1	0.8022969999983616
35	402035	2	31	0	0	2	1	0.8818300000020827
35	402035	2	32	0	0	2	-1	0.39273950000279
35	402035	2	33	0	1	1	-1	0.155104500001471
35	402035	2	34	0	0	2	-1	0.6659385999992082
35	402035	2	35	0	0	2	1	1.3247154000018782
35	402035	2	36	0	1	1	1	0.379632500000298
35	402035	2	37	0	0	2	-1	0.7206906999999774
35	402035	2	38	0	0	2	-1	0.3290680999998585
35	402035	2	39	0	0	2	-1	0.2347009000004618
35	402035	2	40	0	1	1	1	0.1749463999985891
35	402035	2	41	0	1	1	1	0.0112157000003207
35	402035	2	42	0	0	2	-1	0.599984399999812
35	402035	2	43	0	0	2	-1	0.2306300999989616
35	402035	2	44	0	1	1	1	1.0560203999993971
35	402035	2	45	0	1	1	1	0.4369001000013668
35	402035	2	46	0	1	1	1	0.5969903000004706
35	402035	2	47	0	1	1	1	0.4871865000022808
35	402035	2	48	0	1	1	1	0.370397700000467
35	402035	2	49	0	1	1	1	0.606778100001975
35	402035	2	50	0	1	1	1	0.8310695999971358
35	402035	2	51	1	0	1	-1	0.7537479000020539
35	402035	2	52	1	1	2	1	1.157852800002729
35	402035	2	53	1	1	2	1	0.4443928000000596
35	402035	2	54	1	1	2	1	0.4254376999997475
35	402035	2	55	1	1	2	1	0.4924228999989282
35	402035	2	56	1	1	2	1	0.8752440999996907
35	402035	2	57	1	1	2	-1	0.511500900000101
35	402035	2	58	2	1	1	1	0.960640000001149
35	402035	2	59	2	1	1	1	1.089095699997415
35	402035	2	60	2	1	1	-1	0.7296663999986777
36	402036	2	1	0	0	2	1	0.4760787549999804
36	402036	2	2	0	0	2	-1	0.522916100002476
36	402036	2	3	0	1	1	1	0.4596039999996719
36	402036	2	4	0	1	1	-1	0.5623071999980311
36	402036	2	5	0	1	1	1	0.4138889999994717
36	402036	2	6	0	1	1	1	0.5374645000010787
36	402036	2	7	0	1	1	-1	0.5287613999971654
36	402036	2	8	0	1	1	1	0.3629222000017762
36	402036	2	9	1	1	2	1	0.5995865999975649
36	402036	2	10	1	0	1	-1	0.4965979999979026
36	402036	2	11	1	1	2	1	0.6583515999991505
36	402036	2	12	1	1	2	1	0.4462013999982446
36	402036	2	13	1	1	2	1	0.4641124999980093
36	402036	2	14	1	1	2	1	0.5051786000003631
36	402036	2	15	1	1	2	1	0.4893943999995827
36	402036	2	16	1	1	2	1	0.4708100999996532
36	402036	2	17	2	0	2	-1	0.4615628999999899
36	402036	2	18	2	1	1	1	0.530079600001045
36	402036	2	19	2	1	1	1	0.4372627000011562
36	402036	2	20	2	1	1	1	0.4551152999993064
36	402036	2	21	2	1	1	1	0.4305402999998478
36	402036	2	22	2	1	1	1	0.4965034000015293
36	402036	2	23	2	1	1	1	0.4828596000006655
36	402036	2	24	2	1	1	1	0.545450500001607
36	402036	2	25	3	0	1	-1	0.3363189999981841
36	402036	2	26	3	1	2	-1	0.4551847000002453
36	402036	2	27	3	0	1	-1	0.3735961999991559
36	402036	2	28	3	0	1	-1	0.421230200001446
36	402036	2	29	3	1	2	1	0.4678879999992205
36	402036	2	30	3	1	2	1	0.4025887999996485
36	402036	2	31	3	1	2	1	0.4291364000018802
36	402036	2	32	3	1	2	1	0.452722599999106
36	402036	2	33	3	1	2	1	0.5171250000021246
36	402036	2	34	3	1	2	1	0.4575010000007751
36	402036	2	35	3	1	2	1	0.5316186000018206
36	402036	2	36	4	0	2	1	0.4383535999986634
36	402036	2	37	4	0	2	-1	0.4629046999980346
36	402036	2	38	4	1	1	1	0.4904189000008045
36	402036	2	39	4	1	1	1	0.4185609000014665
36	402036	2	40	4	1	1	-1	0.3667019000022264
36	402036	2	41	4	0	2	1	0.451535000000149
36	402036	2	42	4	0	2	-1	0.4902865999974892
36	402036	2	43	4	1	1	1	0.5168504000030225
36	402036	2	44	4	1	1	1	0.4554391999990912
36	402036	2	45	4	1	1	-1	0.4786237000007531
36	402036	2	46	4	0	2	-1	0.5896255000006931
36	402036	2	47	4	1	1	1	0.4224906999988889
36	402036	2	48	4	1	1	1	0.4842444000023533
36	402036	2	49	4	1	1	1	0.4382881000019551
36	402036	2	50	4	1	1	1	0.583103700002539
36	402036	2	51	4	1	1	1	0.4926924999999755
36	402036	2	52	4	1	1	-1	0.5449277000006987
36	402036	2	53	4	1	1	1	0.448128899999574
36	402036	2	54	5	0	1	-1	0.4741462999991199
36	402036	2	55	5	0	1	-1	0.3417125999985728
36	402036	2	56	5	1	2	1	0.4098326999992423
36	402036	2	57	5	1	2	-1	0.4398720999997749
36	402036	2	58	5	0	1	-1	0.5213836999973864
36	402036	2	59	5	1	2	-1	0.4835401999989699
36	402036	2	60	5	1	2	1	0.4081714999992982
39	402039	2	1	1	0	1	-1	0.4353511999943293
39	402039	2	2	1	0	1	-1	0.3332575999957043
39	402039	2	3	1	1	2	1	0.6706062000012025
39	402039	2	4	1	1	2	-1	0.7232551000051899
39	402039	2	5	1	0	1	1	1.5
39	402039	2	6	1	0	1	-1	0.6896950000009383
39	402039	2	7	1	1	2	1	1.182626399997389
39	402039	2	8	1	0	1	-1	0.8479222000023583
39	402039	2	9	1	1	2	1	0.5269774000043981
39	402039	2	10	1	0	1	1	0.7593736999988323
39	402039	2	11	1	0	1	-1	0.7183521999977529
39	402039	2	12	1	0	1	-1	1.0525851999991571
39	402039	2	13	1	1	2	1	0.9315772999980254
39	402039	2	14	1	1	2	1	1.2884126999997534
39	402039	2	15	1	1	2	1	0.6968956999990041
39	402039	2	16	1	1	2	1	0.6114735000010114
39	402039	2	17	1	1	2	-1	0.6147005000020727
39	402039	2	18	1	1	2	1	1.195429100000183
39	402039	2	19	2	0	2	-1	0.5780884000050719
39	402039	2	20	2	0	2	1	0.494958499999484
39	402039	2	21	2	0	2	-1	0.5317276999994647
39	402039	2	22	2	0	2	-1	0.6284554000012577
39	402039	2	23	2	1	1	-1	0.4745594000050914
39	402039	2	24	2	0	2	-1	0.5212192999970284
39	402039	2	25	2	0	2	-1	0.5392045999979018
39	402039	2	26	2	1	1	1	0.5821604000011575
39	402039	2	27	2	1	1	1	0.4429276000009849
39	402039	2	28	2	1	1	1	0.4075948999961838
39	402039	2	29	2	1	1	1	0.5679240000026766
39	402039	2	30	2	0	2	-1	0.6186381000006804
39	402039	2	31	2	1	1	1	0.5172761999929207
39	402039	2	32	2	1	1	1	0.5079065000027185
39	402039	2	33	2	1	1	1	0.630267400003504
39	402039	2	34	2	1	1	1	0.6309811000028276
39	402039	2	35	2	1	1	1	0.5496497000058298
39	402039	2	36	2	1	1	-1	0.8111686000047484
39	402039	2	37	3	1	2	1	0.4755931999970926
39	402039	2	38	3	1	2	1	0.5845058999984758
39	402039	2	39	3	1	2	1	0.659398499999952
39	402039	2	40	3	1	2	1	0.4942144000015105
39	402039	2	41	3	1	2	-1	0.530323099999805
39	402039	2	42	3	0	1	-1	0.623485800002527
39	402039	2	43	3	0	1	-1	0.8060938000053284
39	402039	2	44	3	1	2	-1	0.5324867000017548
39	402039	2	45	3	1	2	1	0.5819969000003766
39	402039	2	46	3	1	2	-1	0.5164835000032326
39	402039	2	47	3	1	2	1	0.4864134000017657
39	402039	2	48	3	1	2	1	0.5389931999961846
39	402039	2	49	3	1	2	1	0.5412569999971311
39	402039	2	50	3	1	2	1	0.5980171000046539
39	402039	2	51	4	0	2	-1	0.5221307999963756
39	402039	2	52	4	0	2	1	0.4765464000010979
39	402039	2	53	4	0	2	-1	0.4641890999992029
39	402039	2	54	4	0	2	-1	0.4259826999987126
39	402039	2	55	4	1	1	-1	0.6029647000032128
39	402039	2	56	4	0	2	-1	1.185932500004128
39	402039	2	57	4	1	1	1	0.4185906999991857
39	402039	2	58	4	1	1	1	0.4504922999985865
39	402039	2	59	4	1	1	1	0.640239783051183
39	402039	2	60	4	1	1	-1	0.634408899997652
40	402040	2	1	1	1	2	1	0.6481827000025078
40	402040	2	2	1	0	1	-1	0.7787306000027456
40	402040	2	3	1	0	1	-1	0.4024217000041972
40	402040	2	4	1	0	1	1	0.3377304000023287
40	402040	2	5	1	0	1	-1	0.3739401000057114
40	402040	2	6	1	0	1	-1	0.2866563999996288
40	402040	2	7	1	0	1	-1	0.2501467000038246
40	402040	2	8	1	1	2	-1	0.3122691000025952
40	402040	2	9	1	1	2	1	0.3570734999957494
40	402040	2	10	1	1	2	1	0.5734117000029073
40	402040	2	11	1	1	2	1	0.7044848999939859
40	402040	2	12	1	1	2	-1	0.4614855000036186
40	402040	2	13	1	0	1	-1	0.4931899000002886
40	402040	2	14	1	1	2	1	0.3865734999999404
40	402040	2	15	1	1	2	1	0.4769219000008888
40	402040	2	16	1	1	2	1	0.5130032999950345
40	402040	2	17	1	1	2	1	0.4301390999971772
40	402040	2	18	1	1	2	1	0.4149560000005294
40	402040	2	19	1	1	2	1	0.4607972000012523
40	402040	2	20	1	1	2	1	0.4586230999993859
40	402040	2	21	2	0	2	1	0.3640115999951376
40	402040	2	22	2	0	2	-1	0.3818501999994623
40	402040	2	23	2	1	1	1	0.4618757999996887
40	402040	2	24	2	1	1	1	0.4329330999971716
40	402040	2	25	2	1	1	1	0.4663164999947184
40	402040	2	26	2	1	1	-1	0.4639778999990085
40	402040	2	27	2	0	2	1	0.3888512999983504
40	402040	2	28	2	0	2	-1	0.4312802999993437
40	402040	2	29	2	1	1	1	0.4303456999987247
40	402040	2	30	2	1	1	1	0.5398095000055037
40	402040	2	31	2	1	1	-1	0.4889251999993576
40	402040	2	32	2	0	2	-1	0.4524859000011929
40	402040	2	33	2	0	2	-1	0.55012749999878
40	402040	2	34	2	1	1	1	0.97711170000548
40	402040	2	35	2	1	1	1	0.5374694999991334
40	402040	2	36	2	1	1	-1	0.4180467000041972
40	402040	2	37	2	0	2	1	0.4853378999978304
40	402040	2	38	2	0	2	-1	0.4166106000047875
40	402040	2	39	2	1	1	-1	0.5724193999994895
40	402040	2	40	2	0	2	-1	0.6669955000033951
40	402040	2	41	2	0	2	-1	0.4247160000013537
40	402040	2	42	2	1	1	1	0.5048860999959288
40	402040	2	43	2	1	1	-1	0.432021699998586
40	402040	2	44	2	0	2	1	0.9729294999997364
40	402040	2	45	2	0	2	-1	0.4554531000030692
40	402040	2	46	2	1	1	-1	0.5036094266666623
40	402040	2	47	2	1	1	-1	0.55498919999809
40	402040	2	48	2	0	2	-1	0.400388699999894
40	402040	2	49	2	0	2	-1	0.5094108999983291
40	402040	2	50	2	1	1	1	0.4635882999937166
40	402040	2	51	2	1	1	1	0.3762484999970183
40	402040	2	52	2	1	1	1	0.4618300999936764
40	402040	2	53	2	1	1	1	0.41686170000321
40	402040	2	54	2	1	1	-1	0.5808207000009133
40	402040	2	55	2	0	2	-1	0.3812452999991365
40	402040	2	56	2	1	1	1	0.7331123000039952
40	402040	2	57	2	1	1	1	0.5036094266666623
40	402040	2	58	2	1	1	1	0.4512638000014703
40	402040	2	59	2	1	1	1	0.4536110999979428
40	402040	2	60	2	1	1	-1	0.4569301000010455
41	402041	2	1	0	0	2	-1	0.7363239000042086
41	402041	2	2	0	1	1	1	0.7212151999992784
41	402041	2	3	0	1	1	1	0.538018799998099
41	402041	2	4	0	1	1	-1	0.6030670999971335
41	402041	2	5	0	0	2	-1	0.3896432999972603
41	402041	2	6	0	0	2	1	0.7219379000016488
41	402041	2	7	0	0	2	-1	0.6153412999992725
41	402041	2	8	0	0	2	-1	0.5837269999974524
41	402041	2	9	0	1	1	1	0.5701613999990514
41	402041	2	10	0	1	1	1	0.6407055000017863
41	402041	2	11	0	1	1	1	0.5014265999998315
41	402041	2	12	0	1	1	1	0.4856624000021838
41	402041	2	13	0	1	1	1	0.5264720000050147
41	402041	2	14	0	1	1	1	0.5137336999978288
41	402041	2	15	1	0	1	-1	0.4723535000011907
41	402041	2	16	1	0	1	-1	0.438424700005271
41	402041	2	17	1	0	1	1	0.7493825999990804
41	402041	2	18	1	0	1	-1	0.4729843999957666
41	402041	2	19	1	0	1	-1	0.5272478000042611
41	402041	2	20	1	1	2	1	0.9698382999995374
41	402041	2	21	1	1	2	-1	0.3717087000040919
41	402041	2	22	1	1	2	1	0.7248356999989483
41	402041	2	23	1	1	2	1	0.5581290999980411
41	402041	2	24	1	1	2	-1	0.379183600001852
41	402041	2	25	1	1	2	1	0.6211237000024994
41	402041	2	26	2	0	2	-1	0.5952303000012762
41	402041	2	27	2	1	1	1	0.608198163333994
41	402041	2	28	2	1	1	-1	0.4692292999970959
41	402041	2	29	2	1	1	1	1.2918492999961018
41	402041	2	30	2	0	2	-1	0.3105142999993404
41	402041	2	31	2	0	2	-1	0.6326699999990524
41	402041	2	32	2	1	1	1	0.6786395999952219
41	402041	2	33	2	1	1	1	0.4585796000028495
41	402041	2	34	2	1	1	-1	0.3181279000054928
41	402041	2	35	2	0	2	-1	0.7587578000020585
41	402041	2	36	2	1	1	1	0.4015998999966541
41	402041	2	37	2	1	1	-1	0.3827058000024408
41	402041	2	38	2	1	1	1	0.4334873999978299
41	402041	2	39	2	1	1	1	0.3632776000013109
41	402041	2	40	2	1	1	1	0.3039344999997411
41	402041	2	41	2	1	1	-1	0.5887299000023631
41	402041	2	42	3	0	1	1	0.833249600000272
41	402041	2	43	3	0	1	1	0.5523873999991338
41	402041	2	44	3	0	1	-1	0.5011507000017446
41	402041	2	45	3	0	1	-1	0.6061933999953908
41	402041	2	46	3	1	2	-1	1.1307356000033906
41	402041	2	47	3	0	1	-1	1.0231055000040217
41	402041	2	48	3	0	1	-1	0.4097537000052398
41	402041	2	49	3	0	1	-1	0.4702768000061041
41	402041	2	50	3	1	2	1	0.481560600004741
41	402041	2	51	3	1	2	1	1.0681857000017771
41	402041	2	52	3	1	2	1	0.6035167000009096
41	402041	2	53	3	1	2	1	1.096482200002356
41	402041	2	54	3	1	2	1	0.486250399997516
41	402041	2	55	3	1	2	1	0.7595690000016475
41	402041	2	56	3	1	2	-1	0.6613046999991639
41	402041	2	57	4	1	1	1	0.5409765000003972
41	402041	2	58	4	1	1	1	0.4725896999952965
41	402041	2	59	4	1	1	1	0.53976550000516
41	402041	2	60	4	1	1	1	0.4290023000066867
42	402042	2	1	0	0	2	-1	0.3451621000003797
42	402042	2	2	0	0	2	-1	0.5510925199999899
42	402042	2	3	0	1	1	1	0.6031078000000889
42	402042	2	4	0	1	1	1	0.7022821999998996
42	402042	2	5	0	1	1	-1	0.6584846999994625
42	402042	2	6	0	0	2	1	0.4651691999997638
42	402042	2	7	0	0	2	-1	0.8141659999992044
42	402042	2	8	0	1	1	1	0.4965846999994028
42	402042	2	9	0	1	1	-1	0.450992099999894
42	402042	2	10	0	1	1	1	0.2757321999997657
42	402042	2	11	0	1	1	1	0.5298207000005277
42	402042	2	12	0	1	1	1	0.3424095000000307
42	402042	2	13	0	1	1	1	0.5251155000005383
42	402042	2	14	1	0	1	-1	0.7084234000003562
42	402042	2	15	1	1	2	1	0.1604894000001877
42	402042	2	16	1	1	2	1	0.6731882000003679
42	402042	2	17	1	1	2	-1	0.6657156999999643
42	402042	2	18	1	1	2	1	0.281887000000097
42	402042	2	19	1	1	2	-1	0.4901751999996122
42	402042	2	20	1	1	2	1	0.7784480999998777
42	402042	2	21	2	0	2	1	0.4997118999999657
42	402042	2	22	2	0	2	-1	0.481144100000165
42	402042	2	23	2	0	2	-1	0.4635957999998936
42	402042	2	24	2	1	1	1	0.3664417999998477
42	402042	2	25	2	1	1	-1	0.5018813000006048
42	402042	2	26	2	0	2	-1	0.5646449999994729
42	402042	2	27	2	1	1	1	0.351249800000005
42	402042	2	28	2	1	1	1	0.3550844000001234
42	402042	2	29	2	1	1	1	0.5136460000003353
42	402042	2	30	2	1	1	1	0.5465426000000662
42	402042	2	31	2	1	1	1	0.517598899999939
42	402042	2	32	2	1	1	1	0.4863648000000466
42	402042	2	33	3	0	1	-1	0.5693904999998267
42	402042	2	34	3	0	1	-1	0.6583385000003545
42	402042	2	35	3	0	1	-1	0.4478038999995988
42	402042	2	36	3	1	2	1	0.476314800000182
42	402042	2	37	3	1	2	1	0.5969301000004634
42	402042	2	38	3	1	2	1	0.4376315999998041
42	402042	2	39	3	1	2	1	0.505915400000049
42	402042	2	40	3	1	2	1	0.4076174000001629
42	402042	2	41	3	1	2	-1	0.5551086000004943
42	402042	2	42	3	1	2	1	0.7405361000000994
42	402042	2	43	4	0	2	-1	0.4553772999997818
42	402042	2	44	4	1	1	1	0.5360823000000892
42	402042	2	45	4	1	1	1	0.5833512999997765
42	402042	2	46	4	1	1	1	0.395218499999828
42	402042	2	47	4	1	1	1	0.8429039000002376
42	402042	2	48	4	1	1	1	0.3256430000001273
42	402042	2	49	4	1	1	1	0.3605575000001408
42	402042	2	50	5	0	1	-1	0.3669650000001638
42	402042	2	51	5	0	1	1	0.7843004999995173
42	402042	2	52	5	0	1	-1	0.3819895999995424
42	402042	2	53	5	1	2	1	0.6906857999993008
42	402042	2	54	5	1	2	1	0.6810875000001033
42	402042	2	55	5	1	2	1	0.5560324999996737
42	402042	2	56	5	1	2	1	0.6844757999997455
42	402042	2	57	5	1	2	1	0.7771056000001408
42	402042	2	58	5	1	2	1	0.7656669999996666
42	402042	2	59	5	1	2	-1	0.9627479000000676
42	402042	2	60	6	1	1	1	0.8177345000003697
43	402043	2	1	1	0	1	-1	0.6758026999996218
43	402043	2	2	1	0	1	-1	0.4955804999990505
43	402043	2	3	1	0	1	1	0.3304778999990958
43	402043	2	4	1	1	2	1	0.7076490999970702
43	402043	2	5	1	1	2	-1	0.4203039000021817
43	402043	2	6	1	1	2	1	0.7303510000019742
43	402043	2	7	1	1	2	1	0.5262108050851335
43	402043	2	8	1	1	2	1	0.6086050999983854
43	402043	2	9	1	1	2	1	0.7250184000004083
43	402043	2	10	1	1	2	-1	0.6964952000016638
43	402043	2	11	2	1	1	1	1.5
43	402043	2	12	2	0	2	-1	0.5421440999998595
43	402043	2	13	2	1	1	-1	0.2908765000029234
43	402043	2	14	2	0	2	-1	0.3604517999992822
43	402043	2	15	2	0	2	-1	0.9452594999966096
43	402043	2	16	2	1	1	1	0.3911521000009088
43	402043	2	17	2	1	1	1	0.934745099999418
43	402043	2	18	2	1	1	1	0.5241461000005074
43	402043	2	19	2	1	1	1	0.6073811000023852
43	402043	2	20	2	1	1	1	0.3933666999982961
43	402043	2	21	2	1	1	1	0.3588305999983276
43	402043	2	22	2	1	1	1	0.5285320000002685
43	402043	2	23	3	0	1	-1	0.4757246999979543
43	402043	2	24	3	1	2	1	0.445297300000675
43	402043	2	25	3	1	2	1	0.5393742999985989
43	402043	2	26	3	1	2	1	0.5083516000013333
43	402043	2	27	3	1	2	-1	0.4524849000008544
43	402043	2	28	3	0	1	1	0.3215445000023464
43	402043	2	29	3	0	1	-1	0.4436612000026798
43	402043	2	30	3	1	2	1	0.3499527999993006
43	402043	2	31	3	1	2	1	0.273203900000226
43	402043	2	32	3	1	2	1	0.3985433999987435
43	402043	2	33	3	1	2	1	0.4093047000023944
43	402043	2	34	3	1	2	1	0.6323363000010431
43	402043	2	35	3	1	2	-1	0.3596106000004511
43	402043	2	36	3	0	1	1	0.4281366000031994
43	402043	2	37	3	0	1	-1	0.6513349000015296
43	402043	2	38	3	1	2	1	0.4458566000030259
43	402043	2	39	3	1	2	1	0.6541833000010229
43	402043	2	40	3	1	2	1	0.2860867999988841
43	402043	2	41	3	1	2	1	0.3788662000006297
43	402043	2	42	3	1	2	1	0.5722496999987925
43	402043	2	43	3	1	2	-1	0.4774399000016274
43	402043	2	44	3	1	2	1	0.4183679000016127
43	402043	2	45	4	0	2	-1	0.4068143000004056
43	402043	2	46	4	0	2	-1	0.4870947000017622
43	402043	2	47	4	0	2	-1	0.4116089000017382
43	402043	2	48	4	1	1	1	0.5605639000023075
43	402043	2	49	4	1	1	1	0.7996913000024506
43	402043	2	50	4	0	2	-1	0.3607101999987208
43	402043	2	51	4	1	1	1	0.466852800000197
43	402043	2	52	4	1	1	1	0.9962051000002248
43	402043	2	53	4	1	1	-1	0.434658500002115
43	402043	2	54	4	1	1	1	0.448237100001279
43	402043	2	55	4	0	2	-1	0.3646345999986806
43	402043	2	56	4	1	1	1	0.8073855999973603
43	402043	2	57	4	1	1	-1	0.5783964000002015
43	402043	2	58	4	0	2	-1	0.4018208000015875
43	402043	2	59	4	1	1	1	0.6222708999994211
43	402043	2	60	4	0	2	-1	0.5726496999996016
44	402044	2	1	0	0	2	-1	0.3863652999971236
44	402044	2	2	0	1	1	1	0.518085700001393
44	402044	2	3	0	0	2	-1	0.5329197999999451
44	402044	2	4	0	1	1	1	0.5637342999980319
44	402044	2	5	0	1	1	-1	0.4817585999990115
44	402044	2	6	0	0	2	1	1.0809005000010077
44	402044	2	7	0	0	2	-1	0.4557641999999759
44	402044	2	8	0	1	1	1	0.5432768999999098
44	402044	2	9	0	1	1	1	0.4136139000002004
44	402044	2	10	0	1	1	1	0.4836370000011811
44	402044	2	11	0	1	1	1	0.5153094000015699
44	402044	2	12	0	1	1	1	0.666055999998207
44	402044	2	13	0	1	1	-1	0.4644984999977168
44	402044	2	14	0	1	1	1	0.4875468000027467
44	402044	2	15	1	0	1	-1	1.0704870000008668
44	402044	2	16	1	0	1	1	1.2615153000006103
44	402044	2	17	1	0	1	-1	0.9636195999992196
44	402044	2	18	1	0	1	-1	1.0346616999995604
44	402044	2	19	1	1	2	1	0.8815799000003608
44	402044	2	20	1	1	2	1	0.6791861999990942
44	402044	2	21	1	1	2	1	0.7263850000017555
44	402044	2	22	1	1	2	1	0.5881249999983993
44	402044	2	23	1	1	2	1	0.6751594999986992
44	402044	2	24	1	1	2	1	0.6172437999994145
44	402044	2	25	1	1	2	1	0.5929298000010021
44	402044	2	26	2	0	2	-1	0.7597142000013264
44	402044	2	27	2	0	2	-1	0.5354191000005812
44	402044	2	28	2	0	2	-1	0.4607710000018414
44	402044	2	29	2	1	1	1	0.4680920000027981
44	402044	2	30	2	1	1	1	0.5131688000001304
44	402044	2	31	2	1	1	1	0.5042350000003353
44	402044	2	32	2	1	1	-1	0.5118461999991268
44	402044	2	33	2	1	1	1	0.8380849999994098
44	402044	2	34	2	1	1	1	0.9005581999990682
44	402044	2	35	3	0	1	1	0.7958940000025905
44	402044	2	36	3	0	1	-1	0.5465478000005533
44	402044	2	37	3	0	1	-1	0.5758974999989732
44	402044	2	38	3	1	2	1	0.6155007999986992
44	402044	2	39	3	1	2	1	0.4622569999992265
44	402044	2	40	3	1	2	1	0.4604163999974844
44	402044	2	41	3	1	2	1	0.5321852999986731
44	402044	2	42	3	1	2	1	0.7473910000007891
44	402044	2	43	3	1	2	-1	0.5851024000003235
44	402044	2	44	4	0	2	-1	1.5
44	402044	2	45	4	0	2	-1	0.8233939000019745
44	402044	2	46	4	1	1	-1	0.7509900000004563
44	402044	2	47	4	1	1	1	1.125059499998315
44	402044	2	48	4	1	1	1	0.515667100000428
44	402044	2	49	4	1	1	1	0.6989168000000063
44	402044	2	50	4	1	1	-1	0.4964655999974638
44	402044	2	51	4	1	1	1	0.6643502000006265
44	402044	2	52	5	0	1	-1	0.7825355999993917
44	402044	2	53	5	0	1	-1	0.6771793000007165
44	402044	2	54	5	0	1	-1	1.2752729000021643
44	402044	2	55	5	1	2	1	0.4420721999995294
44	402044	2	56	5	1	2	1	1.1609889999999723
44	402044	2	57	5	1	2	-1	0.5110217000001285
44	402044	2	58	5	1	2	1	0.5431291000022611
44	402044	2	59	5	1	2	1	0.6210146000012173
44	402044	2	60	5	1	2	1	0.9646102000006068
46	402046	2	1	1	0	1	-1	0.5614832999999635
46	402046	2	2	1	0	1	1	0.6434488999948371
46	402046	2	3	1	1	2	-1	1.1987416999982088
46	402046	2	4	1	0	1	-1	1.5
46	402046	2	5	1	1	2	1	0.9025182999976096
46	402046	2	6	1	0	1	-1	1.01963870000327
46	402046	2	7	1	1	2	1	1.1850818000020809
46	402046	2	8	1	1	2	1	0.6045740999979898
46	402046	2	9	1	1	2	1	0.6452478999999585
46	402046	2	10	1	1	2	1	1.5
46	402046	2	11	1	0	1	-1	1.203817000001436
46	402046	2	12	1	1	2	1	0.7967785000000731
46	402046	2	13	1	1	2	1	0.8197153999935836
46	402046	2	14	1	1	2	1	1.0268324999997276
46	402046	2	15	1	0	1	-1	1.0826680999962264
46	402046	2	16	1	1	2	-1	0.470844000003126
46	402046	2	17	1	0	1	-1	0.5516698000064935
46	402046	2	18	1	1	2	1	0.7540093999996316
46	402046	2	19	1	1	2	1	0.9727653000009012
46	402046	2	20	1	1	2	1	0.6493755000046804
46	402046	2	21	1	1	2	1	0.9040142000012564
46	402046	2	22	1	1	2	1	0.945956199997454
46	402046	2	23	1	1	2	1	1.204479399995762
46	402046	2	24	2	0	2	1	1.144780799993896
46	402046	2	25	2	0	2	-1	1.0099267999976291
46	402046	2	26	2	1	1	1	0.5850685000041267
46	402046	2	27	2	1	1	-1	0.98261530000309
46	402046	2	28	2	0	2	-1	0.5467054000037024
46	402046	2	29	2	1	1	1	0.5682774000015343
46	402046	2	30	2	1	1	1	0.7938661000007414
46	402046	2	31	2	1	1	1	0.8629906999995001
46	402046	2	32	2	1	1	1	1.3465504000050714
46	402046	2	33	2	1	1	1	0.9764292999971076
46	402046	2	34	2	1	1	1	0.7738106999968295
46	402046	2	35	2	1	1	1	0.8459666999988258
46	402046	2	36	3	0	1	-1	0.679437600003439
46	402046	2	37	3	1	2	1	0.5606390999964788
46	402046	2	38	3	0	1	-1	1.5
46	402046	2	39	3	1	2	1	0.4383020999957807
46	402046	2	40	3	1	2	-1	0.9398600999993504
46	402046	2	41	3	0	1	1	0.6682380999991437
46	402046	2	42	3	0	1	-1	0.7193874000004143
46	402046	2	43	3	1	2	1	1.5
46	402046	2	44	3	1	2	1	0.5730953999955091
46	402046	2	45	3	1	2	1	0.7761128999991342
46	402046	2	46	3	1	2	1	0.8668419999958132
46	402046	2	47	3	1	2	-1	0.9315126000001328
46	402046	2	48	3	0	1	-1	0.5424417999965954
46	402046	2	49	3	1	2	1	0.6672105000034207
46	402046	2	50	3	1	2	1	0.9171573999992688
46	402046	2	51	3	1	2	1	0.725412600004347
46	402046	2	52	3	1	2	1	0.5736458999963361
46	402046	2	53	3	1	2	1	0.8198131000026478
46	402046	2	54	3	1	2	1	0.7517354000010528
46	402046	2	55	3	1	2	-1	0.8486111000020173
46	402046	2	56	4	0	2	-1	0.8761331999994582
46	402046	2	57	4	1	1	1	0.5690305000025546
46	402046	2	58	4	1	1	1	0.8042200999989291
46	402046	2	59	4	1	1	1	0.7745713999975123
46	402046	2	60	4	1	1	1	1.0973288000022876
47	402047	2	1	0	1	1	1	0.7602364999984275
47	402047	2	2	0	0	2	-1	0.3987511999985145
47	402047	2	3	0	0	2	-1	0.3784149999992223
47	402047	2	4	0	0	2	1	0.2558045000005222
47	402047	2	5	0	1	1	1	0.4560424999981478
47	402047	2	6	0	0	2	-1	0.3047456000022066
47	402047	2	7	0	0	2	-1	0.3250884000008227
47	402047	2	8	0	1	1	-1	0.5719000999997661
47	402047	2	9	0	0	2	-1	0.3183877999981632
47	402047	2	10	0	1	1	1	0.2752007999988564
47	402047	2	11	0	0	2	1	0.3879360999999335
47	402047	2	12	0	1	1	1	0.3333138999987568
47	402047	2	13	0	1	1	-1	0.5998490999991191
47	402047	2	14	0	0	2	-1	0.4780385000012757
47	402047	2	15	0	1	1	1	0.7706249000002572
47	402047	2	16	0	1	1	-1	0.6253337999987707
47	402047	2	17	0	1	1	1	0.5354034999982105
47	402047	2	18	0	0	2	-1	1.5
47	402047	2	19	0	1	1	1	0.3177231999979995
47	402047	2	20	0	1	1	1	0.4487408999993931
47	402047	2	21	0	1	1	1	0.5051930000008724
47	402047	2	22	0	1	1	1	0.5893840999997337
47	402047	2	23	0	1	1	1	0.3971338999981526
47	402047	2	24	0	1	1	1	0.353551600001083
47	402047	2	25	1	0	1	-1	0.3673068999996758
47	402047	2	26	1	0	1	1	0.4468082999992475
47	402047	2	27	1	0	1	-1	0.3273227000026963
47	402047	2	28	1	0	1	-1	0.4421270999991975
47	402047	2	29	1	1	2	1	0.4860595999998622
47	402047	2	30	1	1	2	-1	0.5138854610167519
47	402047	2	31	1	0	1	-1	0.4658732999996573
47	402047	2	32	1	0	1	-1	0.4576562000002013
47	402047	2	33	1	0	1	-1	0.4717936999986705
47	402047	2	34	1	0	1	-1	0.5527992999996059
47	402047	2	35	1	1	2	1	0.9948119000000588
47	402047	2	36	1	0	1	-1	0.6884496999991825
47	402047	2	37	1	0	1	1	0.5358335000018997
47	402047	2	38	1	0	1	-1	0.5952830999995058
47	402047	2	39	1	0	1	-1	0.3980981000022439
47	402047	2	40	1	0	1	-1	0.4847684999986086
47	402047	2	41	1	0	1	-1	0.4930055000004358
47	402047	2	42	1	0	1	-1	0.6898351999989245
47	402047	2	43	1	0	1	-1	0.3442042999995465
47	402047	2	44	1	1	2	-1	0.4797625999999582
47	402047	2	45	1	1	2	-1	0.5404034000021056
47	402047	2	46	1	0	1	-1	0.9407764999996288
47	402047	2	47	1	1	2	1	0.5138854610167519
47	402047	2	48	1	0	1	-1	0.5639443000000028
47	402047	2	49	1	1	2	1	0.5494489999982761
47	402047	2	50	1	1	2	1	0.411902399999235
47	402047	2	51	1	1	2	1	0.4924126000005344
47	402047	2	52	1	1	2	1	0.5714422999990347
47	402047	2	53	1	1	2	1	0.4846484000008786
47	402047	2	54	1	1	2	1	0.6190583999996306
47	402047	2	55	1	1	2	1	0.4492320999997901
47	402047	2	56	2	0	2	1	0.0273153000016463
47	402047	2	57	2	0	2	-1	0.5958606999993208
47	402047	2	58	2	1	1	1	0.4004649000016798
47	402047	2	59	2	0	2	-1	0.9348365000005288
47	402047	2	60	2	0	2	-1	0.3081859999983862
48	402048	2	1	1	0	1	-1	0.5122101999986626
48	402048	2	2	1	1	2	1	0.731262000001152
48	402048	2	3	1	1	2	-1	0.5457376000013028
48	402048	2	4	1	1	2	1	0.597346499998821
48	402048	2	5	1	1	2	1	0.4647024000005331
48	402048	2	6	1	1	2	1	0.5627688999993552
48	402048	2	7	1	1	2	-1	0.5562475000006089
48	402048	2	8	2	0	2	1	0.3986564000006183
48	402048	2	9	2	0	2	-1	0.6113918999981252
48	402048	2	10	2	0	2	-1	0.5138125000012224
48	402048	2	11	2	1	1	1	0.480717900001764
48	402048	2	12	2	1	1	1	0.5379407000000356
48	402048	2	13	2	1	1	1	0.456885699997656
48	402048	2	14	2	1	1	-1	0.3654705000008107
48	402048	2	15	2	1	1	1	0.4197997999981453
48	402048	2	16	2	1	1	1	0.5845039999985602
48	402048	2	17	2	1	1	1	0.3951987000000372
48	402048	2	18	3	0	1	-1	0.5514961000008043
48	402048	2	19	3	0	1	1	0.4165824000010616
48	402048	2	20	3	0	1	-1	0.7362503000003926
48	402048	2	21	3	0	1	-1	0.3884711999999126
48	402048	2	22	3	1	2	1	0.512253500000952
48	402048	2	23	3	1	2	1	0.5914529999972729
48	402048	2	24	3	1	2	1	0.6124540999990131
48	402048	2	25	3	1	2	1	0.6232734000004712
48	402048	2	26	3	1	2	1	0.4636540999999852
48	402048	2	27	3	1	2	1	0.4660607000005257
48	402048	2	28	4	0	2	-1	0.4759984000011172
48	402048	2	29	4	0	2	-1	0.387928500000271
48	402048	2	30	4	1	1	1	0.3803858999999647
48	402048	2	31	4	1	1	1	0.3700663999989046
48	402048	2	32	4	1	1	-1	0.6730156999983592
48	402048	2	33	4	1	1	1	0.5520763999993505
48	402048	2	34	4	1	1	1	0.4407160000009753
48	402048	2	35	4	1	1	1	0.4035581000025559
48	402048	2	36	5	0	1	-1	0.4742848999994749
48	402048	2	37	5	0	1	-1	0.4026928999992378
48	402048	2	38	5	1	2	1	0.7444845999998506
48	402048	2	39	5	1	2	1	0.612409999997908
48	402048	2	40	5	1	2	1	0.5631671999981336
48	402048	2	41	5	1	2	1	0.4657735999971919
48	402048	2	42	5	1	2	-1	0.44286590000047
48	402048	2	43	5	1	2	1	0.3271749000014097
48	402048	2	44	5	1	2	1	0.4068212999991374
48	402048	2	45	6	0	2	1	0.5452565000014147
48	402048	2	46	6	0	2	-1	0.8394428999999946
48	402048	2	47	6	0	2	-1	0.3834310000020196
48	402048	2	48	6	1	1	-1	0.606665499999508
48	402048	2	49	6	1	1	1	0.4674654999980703
48	402048	2	50	6	1	1	-1	0.4061603999980434
48	402048	2	51	6	1	1	1	0.3940686999994796
48	402048	2	52	6	1	1	1	0.5523140000004787
48	402048	2	53	6	1	1	1	0.4169982999992498
48	402048	2	54	6	1	1	1	0.6093962000013562
48	402048	2	55	7	0	1	1	0.5300960999993549
48	402048	2	56	7	0	1	-1	0.5808212000010826
48	402048	2	57	7	0	1	-1	0.5153336416664994
48	402048	2	58	7	1	2	1	0.3149319999974977
48	402048	2	59	7	1	2	1	0.5414412999998603
48	402048	2	60	7	1	2	1	0.3914186000001791
49	402049	2	1	0	0	2	-1	0.5534441999989212
49	402049	2	2	0	1	1	1	1.4059388000023318
49	402049	2	3	0	1	1	1	0.6211813999980222
49	402049	2	4	0	1	1	-1	0.5656667000002926
49	402049	2	5	0	0	2	-1	0.6247757000019192
49	402049	2	6	0	0	2	1	1.5
49	402049	2	7	0	0	2	-1	1.404398999999103
49	402049	2	8	0	1	1	1	0.57046700000501
49	402049	2	9	0	0	2	-1	0.6053281999993487
49	402049	2	10	0	1	1	1	0.5572979000062332
49	402049	2	11	0	1	1	1	0.6841694000031566
49	402049	2	12	0	1	1	1	0.6427044000010937
49	402049	2	13	0	1	1	1	0.7376012000022456
49	402049	2	14	0	1	1	1	0.8898611000040546
49	402049	2	15	0	1	1	1	0.5934258999986923
49	402049	2	16	1	0	1	-1	0.9062969000005978
49	402049	2	17	1	1	2	-1	1.420028900000034
49	402049	2	18	1	1	2	1	1.0206441999980598
49	402049	2	19	1	1	2	-1	0.6286430999971344
49	402049	2	20	1	0	1	-1	1.1787065000025905
49	402049	2	21	1	0	1	1	1.170862400002079
49	402049	2	22	1	1	2	1	0.5380300000033458
49	402049	2	23	1	0	1	-1	0.6397852000009152
49	402049	2	24	1	1	2	1	0.6013907000015024
49	402049	2	25	1	1	2	-1	0.6546331999998074
49	402049	2	26	1	1	2	1	0.6977368000007118
49	402049	2	27	1	1	2	-1	0.9320652000023985
49	402049	2	28	1	1	2	1	0.4333723000017926
49	402049	2	29	1	1	2	1	1.5
49	402049	2	30	2	0	2	-1	1.0462417000017012
49	402049	2	31	2	1	1	1	0.7612998000040534
49	402049	2	32	2	1	1	1	0.5742844999986119
49	402049	2	33	2	1	1	1	0.8252458999995724
49	402049	2	34	2	1	1	1	0.5893820999990567
49	402049	2	35	2	1	1	1	0.880161399996723
49	402049	2	36	2	1	1	1	1.025007899996126
49	402049	2	37	2	1	1	1	0.4592563999976846
49	402049	2	38	3	0	1	-1	0.4172005000000354
49	402049	2	39	3	0	1	-1	0.6020895999972709
49	402049	2	40	3	1	2	1	0.4776194000005489
49	402049	2	41	3	1	2	1	0.6661051999981282
49	402049	2	42	3	1	2	-1	0.5199777000016184
49	402049	2	43	3	0	1	-1	0.981587700000091
49	402049	2	44	3	0	1	-1	0.5287481999985175
49	402049	2	45	3	1	2	1	0.5992740000001504
49	402049	2	46	3	1	2	1	0.5594006999963312
49	402049	2	47	3	1	2	1	0.6242064000034588
49	402049	2	48	3	1	2	1	0.6089296999998624
49	402049	2	49	3	1	2	1	0.7603624999974272
49	402049	2	50	3	1	2	1	0.500160000003234
49	402049	2	51	4	0	2	1	0.9319161000021268
49	402049	2	52	4	0	2	-1	1.0404112999967765
49	402049	2	53	4	0	2	-1	0.5605444999964675
49	402049	2	54	4	1	1	1	0.5402347999988706
49	402049	2	55	4	1	1	1	0.4210181000016746
49	402049	2	56	4	1	1	1	0.7005771999974968
49	402049	2	57	4	1	1	1	0.6370022999981302
49	402049	2	58	4	1	1	-1	0.5266556999995373
49	402049	2	59	4	0	2	-1	0.7090618000001996
