subjID	subjIDx	block	nTrial	reversals	corrAns	choice	outcome	rt
1	402001	1	1	0	1	1	1	0.7169542877281856
1	402001	1	2	0	1	1	1	0.3544664222249594
1	402001	1	3	0	0	2	-1	1.5
1	402001	1	4	0	1	1	-1	0.5758447773746411
1	402001	1	5	0	0	2	-1	0.8212107908907456
1	402001	1	6	0	1	1	1	0.4139644095985204
1	402001	1	7	0	1	1	-1	0.50052062400664
1	402001	1	8	0	0	2	1	0.2801003530598791
1	402001	1	9	0	1	1	1	0.6066351736544675
1	402001	1	10	0	0	2	-1	0.3893562688199381
1	402001	1	11	0	1	1	1	0.2872988146841635
1	402001	1	12	0	0	2	-1	0.7387113628351472
1	402001	1	13	0	0	2	-1	0.6686395142487527
1	402001	1	14	0	1	1	1	0.4954102232745754
1	402001	1	15	0	1	1	-1	0.5488109739130778
1	402001	1	16	0	1	1	1	0.9707856970612738
1	402001	1	17	0	1	1	1	0.5614939188394601
1	402001	1	18	0	0	2	-1	0.375524488496012
1	402001	1	19	0	1	1	1	0.7687634870676447
1	402001	1	20	0	1	1	1	0.5670467263134924
1	402001	1	21	0	1	1	1	0.4902998225425108
1	402001	1	22	0	1	1	1	0.4803322224215662
1	402001	1	23	0	1	1	1	0.3742995999482446
1	402001	1	24	0	1	1	1	0.7009617941125725
1	402001	1	25	0	1	1	1	0.4501756023964844
1	402001	1	26	1	0	1	1	0.5556208224870716
1	402001	1	27	1	0	1	-1	0.4944202956799017
1	402001	1	28	1	1	2	1	0.5169604709108171
1	402001	1	29	1	1	2	-1	0.6224730876961075
1	402001	1	30	1	0	1	-1	0.4044076819864131
1	402001	1	31	1	1	2	1	0.4558118828413171
1	402001	1	32	1	1	2	1	0.4931270829597451
1	402001	1	33	1	1	2	1	0.5958529391759839
1	402001	1	34	1	1	2	1	0.5545854484971642
1	402001	1	35	1	1	2	-1	0.529216776211797
1	402001	1	36	1	0	1	-1	0.6959088969820186
1	402001	1	37	1	1	2	1	0.4779322199483431
1	402001	1	38	1	1	2	1	0.4526068299437611
1	402001	1	39	1	1	2	1	0.6192989507139828
1	402001	1	40	1	1	2	1	0.769925616308683
1	402001	1	41	1	1	2	1	0.395297071026107
1	402001	1	42	1	1	2	1	0.3500030915915886
1	402001	1	43	2	0	2	-1	0.4874812185817063
1	402001	1	44	2	1	1	1	0.3939679958448323
1	402001	1	45	2	1	1	1	0.4035599676003585
1	402001	1	46	2	1	1	1	0.5379805106072126
1	402001	1	47	2	1	1	1	0.3814779662275214
1	402001	1	48	2	1	1	1	0.470320103382619
1	402001	1	49	2	1	1	1	0.4760976695579302
1	402001	1	50	3	0	1	-1	0.5242761143326865
1	402001	1	51	3	1	2	-1	0.4055812501160289
1	402001	1	52	3	0	1	-1	0.5875770579177697
1	402001	1	53	3	1	2	1	0.4022840677926069
1	402001	1	54	3	1	2	1	0.3596275250570215
1	402001	1	55	3	1	2	1	0.5416316801565699
1	402001	1	56	3	1	2	1	0.535583290566592
1	402001	1	57	3	1	2	1	0.3776898391756731
1	402001	1	58	3	1	2	1	0.5443720668527021
1	402001	1	59	3	1	2	1	0.4550018858708426
1	402001	1	60	4	0	2	1	0.4283297986135039
2	402002	1	1	0	1	1	1	0.2880329999998139
2	402002	1	2	0	1	1	1	0.433469800000239
2	402002	1	3	0	0	2	-1	1.5
2	402002	1	4	0	1	1	-1	0.6002987000001667
2	402002	1	5	0	1	1	1	1.160034600000472
2	402002	1	6	0	0	2	-1	0.731253466101669
2	402002	1	7	0	0	2	1	0.8123090999997657
2	402002	1	8	0	1	1	-1	0.5448472999996739
2	402002	1	9	0	1	1	1	0.7522067999998399
2	402002	1	10	0	0	2	-1	0.58198209999955
2	402002	1	11	0	1	1	1	0.4796747000000323
2	402002	1	12	0	1	1	-1	0.6389411000000109
2	402002	1	13	0	1	1	1	0.6840682000001834
2	402002	1	14	0	0	2	-1	1.281901899999866
2	402002	1	15	0	1	1	1	0.6967309000001478
2	402002	1	16	0	1	1	1	0.9916008999998668
2	402002	1	17	0	1	1	1	0.7475498000003427
2	402002	1	18	0	1	1	1	0.7989524999993591
2	402002	1	19	0	1	1	1	0.8430098999997426
2	402002	1	20	0	1	1	-1	0.8888584999995146
2	402002	1	21	1	1	2	1	0.7294274999994741
2	402002	1	22	1	1	2	1	0.7904183000000558
2	402002	1	23	1	1	2	1	0.6339152999998987
2	402002	1	24	1	1	2	1	0.7007418000002872
2	402002	1	25	1	1	2	1	1.1597573000008197
2	402002	1	26	1	1	2	1	0.6150614999996833
2	402002	1	27	2	0	2	-1	0.955807499999537
2	402002	1	28	2	1	1	1	0.7685458999994808
2	402002	1	29	2	1	1	1	0.8135868000008486
2	402002	1	30	2	1	1	1	0.8541157999998177
2	402002	1	31	2	1	1	1	0.7432733000005101
2	402002	1	32	2	1	1	1	0.7917262999999366
2	402002	1	33	2	1	1	1	0.7795244999997522
2	402002	1	34	3	1	2	1	0.6813699999993332
2	402002	1	35	3	1	2	1	0.756248499999856
2	402002	1	36	3	1	2	1	0.6258976999997685
2	402002	1	37	3	1	2	1	0.6666571000005206
2	402002	1	38	3	1	2	1	0.6805416000006517
2	402002	1	39	3	1	2	-1	0.7727298999998311
2	402002	1	40	4	1	1	1	0.8054037000001699
2	402002	1	41	4	1	1	-1	0.7199730000002091
2	402002	1	42	4	0	2	-1	0.949106999999458
2	402002	1	43	4	0	2	1	0.4791160000004311
2	402002	1	44	4	1	1	1	0.7935406000005969
2	402002	1	45	4	0	2	-1	0.4151088000007803
2	402002	1	46	4	1	1	1	0.8008303999995405
2	402002	1	47	4	1	1	-1	0.6733433999997942
2	402002	1	48	4	1	1	-1	0.6202910000001793
2	402002	1	49	4	1	1	1	0.9398191999998744
2	402002	1	50	4	0	2	-1	0.5522131999996418
2	402002	1	51	4	0	2	-1	0.4621618999999555
2	402002	1	52	4	0	2	-1	0.8094393000001219
2	402002	1	53	4	1	1	1	0.8507865999999922
2	402002	1	54	4	1	1	1	0.4501706999999442
2	402002	1	55	4	1	1	1	0.8203743000003669
2	402002	1	56	4	1	1	1	0.5032973999996102
2	402002	1	57	4	1	1	1	0.6697391999996398
2	402002	1	58	4	1	1	1	0.5964997000000949
2	402002	1	59	5	0	1	-1	0.6530890000003637
2	402002	1	60	5	1	2	1	0.455585599999722
3	402003	1	1	0	1	1	1	0.328131399997801
3	402003	1	2	0	1	1	1	0.4293695999986084
3	402003	1	3	0	1	1	-1	0.6032230999990134
3	402003	1	4	0	1	1	1	0.48606565833324566
3	402003	1	5	0	1	1	1	0.3862226999990525
3	402003	1	6	0	1	1	1	0.4849087000002328
3	402003	1	7	1	0	1	-1	0.4431444000001647
3	402003	1	8	1	0	1	-1	0.4358586999987892
3	402003	1	9	1	1	2	1	0.5131617999977607
3	402003	1	10	1	1	2	1	0.359443100001954
3	402003	1	11	1	1	2	1	0.399522399999114
3	402003	1	12	1	1	2	1	0.5262895999985631
3	402003	1	13	1	1	2	-1	0.4843857000014395
3	402003	1	14	1	0	1	1	0.6051819999993313
3	402003	1	15	1	0	1	-1	0.4411292000004323
3	402003	1	16	1	1	2	1	0.4597495999987586
3	402003	1	17	1	1	2	-1	0.53074910000214
3	402003	1	18	1	0	1	-1	0.5058647000005294
3	402003	1	19	1	0	1	-1	0.6318683000026795
3	402003	1	20	1	1	2	1	0.4478976999998849
3	402003	1	21	1	1	2	1	0.5027800999996543
3	402003	1	22	1	1	2	1	0.3504200999996101
3	402003	1	23	1	1	2	1	0.4688709000001836
3	402003	1	24	1	1	2	1	0.7566216999985045
3	402003	1	25	1	1	2	1	0.5009778999992704
3	402003	1	26	1	1	2	-1	0.4423751000031188
3	402003	1	27	2	0	2	1	0.6864341000000422
3	402003	1	28	2	0	2	-1	0.3869451000027766
3	402003	1	29	2	1	1	1	0.4730030999999144
3	402003	1	30	2	1	1	1	0.4875861000000441
3	402003	1	31	2	1	1	1	0.4626234999996086
3	402003	1	32	2	1	1	1	0.5209222000012232
3	402003	1	33	2	1	1	1	0.4622240999997302
3	402003	1	34	2	1	1	1	0.5143558000017947
3	402003	1	35	2	1	1	1	0.4425464999985706
3	402003	1	36	3	0	1	-1	0.4919985000015003
3	402003	1	37	3	1	2	1	0.3104987000006076
3	402003	1	38	3	1	2	-1	0.5278619999990042
3	402003	1	39	3	0	1	1	0.5194584999990184
3	402003	1	40	3	0	1	-1	0.4267933999981324
3	402003	1	41	3	0	1	-1	0.3238003000005847
3	402003	1	42	3	1	2	1	0.4145959999987099
3	402003	1	43	3	1	2	1	0.4763955999987956
3	402003	1	44	3	1	2	1	0.4577805000008084
3	402003	1	45	3	1	2	1	0.7595651999981783
3	402003	1	46	3	0	1	-1	0.3785496000018611
3	402003	1	47	3	1	2	1	0.4982129999989411
3	402003	1	48	3	1	2	1	0.431278599997313
3	402003	1	49	3	1	2	1	0.412444300000061
3	402003	1	50	3	1	2	1	0.4261315000003378
3	402003	1	51	3	1	2	-1	0.3652311000005284
3	402003	1	52	3	1	2	1	0.4521891000003961
3	402003	1	53	4	0	2	1	0.4186203999997815
3	402003	1	54	4	0	2	-1	0.535997100003442
3	402003	1	55	4	0	2	-1	0.3917476999995415
3	402003	1	56	4	1	1	1	0.4280665999976918
3	402003	1	57	4	1	1	-1	0.7034426999998686
3	402003	1	58	4	0	2	-1	0.6433206000001519
3	402003	1	59	4	1	1	1	0.4005375000015192
3	402003	1	60	4	1	1	1	0.6322048000001814
4	402004	1	1	0	0	2	-1	0.5281532687404251
4	402004	1	2	0	1	1	1	0.421633102288979
4	402004	1	3	0	1	1	-1	0.5716361938793852
4	402004	1	4	0	0	2	-1	0.6263072794608888
4	402004	1	5	0	1	1	1	0.5523363156880805
4	402004	1	6	0	1	1	1	0.4784126532667869
4	402004	1	7	0	1	1	1	0.4523925826542836
4	402004	1	8	0	1	1	1	0.6823884399200324
4	402004	1	9	0	1	1	1	0.3690779019234469
4	402004	1	10	0	1	1	1	0.3911030180115631
4	402004	1	11	0	1	1	1	0.4758160255732946
4	402004	1	12	1	0	1	1	0.4178508492605033
4	402004	1	13	1	0	1	-1	0.632510866944358
4	402004	1	14	1	1	2	1	0.5614211721198968
4	402004	1	15	1	1	2	-1	0.7418882822494197
4	402004	1	16	1	0	1	-1	1.1485518985464296
4	402004	1	17	1	1	2	1	0.978594129686826
4	402004	1	18	1	1	2	1	0.6038521229966136
4	402004	1	19	1	1	2	-1	0.5753127144798782
4	402004	1	20	1	0	1	-1	0.5047610508936486
4	402004	1	21	1	1	2	1	0.4273627487946214
4	402004	1	22	1	1	2	1	0.6253643440577434
4	402004	1	23	1	1	2	1	0.4753154969112074
4	402004	1	24	1	1	2	-1	0.9459469235571304
4	402004	1	25	1	0	1	-1	0.6766207668388233
4	402004	1	26	1	1	2	1	0.66746099957345
4	402004	1	27	1	1	2	1	0.5013828688734066
4	402004	1	28	1	1	2	1	0.3755040839914727
4	402004	1	29	1	1	2	1	0.5614211721198968
4	402004	1	30	1	1	2	-1	0.4988690958325605
4	402004	1	31	1	0	1	1	0.4902345899608917
4	402004	1	32	1	0	1	-1	0.3842557611806114
4	402004	1	33	1	1	2	1	0.5182679049521539
4	402004	1	34	1	1	2	-1	0.3842226811520959
4	402004	1	35	1	0	1	-1	1.5
4	402004	1	36	1	0	1	-1	0.7982665446525061
4	402004	1	37	1	1	2	1	0.4329708957593539
4	402004	1	38	1	1	2	1	0.4397189125011209
4	402004	1	39	1	1	2	1	0.5417355576300906
4	402004	1	40	1	1	2	-1	0.500431277012467
4	402004	1	41	1	0	1	-1	0.5064589529392833
4	402004	1	42	1	1	2	-1	0.6410782852799457
4	402004	1	43	1	0	1	-1	0.519130768136165
4	402004	1	44	1	1	2	1	0.4324317222017271
4	402004	1	45	1	1	2	1	0.4386439661393524
4	402004	1	46	1	1	2	1	0.5052266445727582
4	402004	1	47	1	1	2	1	0.3832747992000804
4	402004	1	48	1	1	2	1	0.4539393058748828
4	402004	1	49	1	1	2	1	0.5079577564938518
4	402004	1	50	2	0	2	-1	0.4338328314643149
4	402004	1	51	2	1	1	-1	0.4399643848664709
4	402004	1	52	2	0	2	1	0.3827025456175761
4	402004	1	53	2	0	2	-1	0.4694553852441459
4	402004	1	54	2	1	1	1	0.4593928732629138
4	402004	1	55	2	1	1	1	0.4339753538333752
4	402004	1	56	2	1	1	1	0.6487778938844713
4	402004	1	57	2	1	1	1	0.478786735837275
4	402004	1	58	2	1	1	1	0.5014555212746927
4	402004	1	59	2	1	1	1	0.4307449498865026
4	402004	1	60	3	0	1	-1	0.5301776428477751
5	402005	1	1	0	0	2	-1	0.4311932278033055
5	402005	1	2	0	1	1	1	0.6617958485621784
5	402005	1	3	0	1	1	-1	0.5078209679086285
5	402005	1	4	0	1	1	1	0.9777202271143324
5	402005	1	5	0	0	2	1	0.3917050377785926
5	402005	1	6	0	1	1	1	0.5263408146420261
5	402005	1	7	0	0	2	-1	1.076873208068719
5	402005	1	8	0	1	1	1	0.3955815148401598
5	402005	1	9	0	1	1	1	0.3055392906389897
5	402005	1	10	0	1	1	1	0.376223552684678
5	402005	1	11	0	1	1	1	0.3988495776029594
5	402005	1	12	0	1	1	-1	0.7733959719771519
5	402005	1	13	0	0	2	-1	0.4434149972876184
5	402005	1	14	0	1	1	1	1.0898972311588295
5	402005	1	15	0	1	1	1	0.6319452130373975
5	402005	1	16	0	1	1	-1	0.6706487712071976
5	402005	1	17	0	0	2	-1	0.9806281259297976
5	402005	1	18	0	1	1	1	0.8912419256812427
5	402005	1	19	0	1	1	1	0.5451540481481061
5	402005	1	20	0	1	1	-1	0.5518747383794107
5	402005	1	21	0	0	2	-1	0.4938302214941359
5	402005	1	22	0	1	1	1	0.5324836967847659
5	402005	1	23	0	1	1	1	0.4911282189859776
5	402005	1	24	0	1	1	1	0.6257321530283662
5	402005	1	25	0	1	1	1	0.5203719859855482
5	402005	1	26	0	1	1	1	0.4789144874957856
5	402005	1	27	0	1	1	1	0.5496463591880456
5	402005	1	28	0	1	1	1	0.6849329043907346
5	402005	1	29	1	0	1	-1	0.4195987309867632
5	402005	1	30	1	0	1	1	0.8255149417054781
5	402005	1	31	1	0	1	-1	0.6235288152784051
5	402005	1	32	1	1	2	-1	0.8694697830178484
5	402005	1	33	1	0	1	-1	0.7320989242070937
5	402005	1	34	1	0	1	-1	1.5
5	402005	1	35	1	1	2	-1	0.5387137602410803
5	402005	1	36	1	1	2	-1	0.8173594695908832
5	402005	1	37	1	0	1	-1	0.4079272549206507
5	402005	1	38	1	1	2	1	0.8626167750444438
5	402005	1	39	1	1	2	1	0.4526401408766105
5	402005	1	40	1	1	2	1	0.3952414458726707
5	402005	1	41	1	1	2	1	0.4338077398460882
5	402005	1	42	1	1	2	1	0.408525776299939
5	402005	1	43	1	1	2	1	0.4951527806224476
5	402005	1	44	1	1	2	1	0.4537246517247695
5	402005	1	45	2	0	2	-1	0.9243470212131796
5	402005	1	46	2	0	2	1	0.7703501906544261
5	402005	1	47	2	1	1	1	0.7442724657303188
5	402005	1	48	2	0	2	-1	0.7029015302505286
5	402005	1	49	2	1	1	1	0.8368614973296644
5	402005	1	50	2	1	1	1	0.4108533937978791
5	402005	1	51	2	1	1	1	0.4495411851348763
5	402005	1	52	2	1	1	-1	0.9368000375943666
5	402005	1	53	2	0	2	-1	0.8947446360289177
5	402005	1	54	2	1	1	-1	1.3013907584099798
5	402005	1	55	2	0	2	-1	0.7319508396321908
5	402005	1	56	2	0	2	-1	0.6569912923795667
5	402005	1	57	2	1	1	1	0.4253217825280444
5	402005	1	58	2	1	1	1	0.6393052329185593
5	402005	1	59	2	1	1	1	1.1098552604635188
5	402005	1	60	2	1	1	1	0.7005327953229425
6	402006	1	1	0	1	1	1	0.982949872934114
6	402006	1	2	0	1	1	1	0.8129472759974306
6	402006	1	3	0	0	2	-1	0.2463185328560939
6	402006	1	4	0	1	1	-1	0.696960656408919
6	402006	1	5	0	0	2	1	0.7490570645932166
6	402006	1	6	0	0	2	-1	0.7104968805833778
6	402006	1	7	0	1	1	1	0.7457895615516463
6	402006	1	8	0	1	1	1	0.6731241768648033
6	402006	1	9	0	1	1	1	0.6631374088756274
6	402006	1	10	0	1	1	-1	0.6378896178175637
6	402006	1	11	0	0	2	-1	0.5312430052763375
6	402006	1	12	0	1	1	-1	0.9852051889283756
6	402006	1	13	0	0	2	-1	0.6747064533883531
6	402006	1	14	0	1	1	1	1.5
6	402006	1	15	0	1	1	1	0.6891992159726215
6	402006	1	16	0	1	1	1	0.4505234064381511
6	402006	1	17	0	1	1	-1	0.4567436885190545
6	402006	1	18	0	0	2	-1	0.6873832151322858
6	402006	1	19	0	1	1	1	0.5973916242583073
6	402006	1	20	0	1	1	1	0.6513896703763749
6	402006	1	21	0	1	1	1	0.6260911772187683
6	402006	1	22	0	1	1	1	0.5040818282432156
6	402006	1	23	0	1	1	1	0.4459719654478249
6	402006	1	24	0	1	1	-1	0.4534913342686195
6	402006	1	25	0	1	1	1	0.3641829851185321
6	402006	1	26	1	0	1	-1	0.4822134558417019
6	402006	1	27	1	1	2	1	0.7448855801994796
6	402006	1	28	1	1	2	1	0.4348311063586152
6	402006	1	29	1	1	2	1	0.4696173846386955
6	402006	1	30	1	1	2	-1	0.604303495354543
6	402006	1	31	1	0	1	1	0.4510032214384409
6	402006	1	32	1	0	1	-1	0.5203439086399158
6	402006	1	33	1	0	1	1	0.9269382732854864
6	402006	1	34	1	0	1	-1	0.5497004247845325
6	402006	1	35	1	0	1	-1	0.4444039102454553
6	402006	1	36	1	1	2	-1	0.6910560258183978
6	402006	1	37	1	0	1	-1	0.4577738068001054
6	402006	1	38	1	0	1	-1	1.5
6	402006	1	39	1	1	2	1	0.551140178944479
6	402006	1	40	1	0	1	1	0.4804138404397235
6	402006	1	41	1	1	2	-1	0.6118590357946232
6	402006	1	42	1	0	1	-1	0.6978887521727302
6	402006	1	43	1	0	1	-1	0.4193360498102265
6	402006	1	44	1	0	1	-1	0.9018793784671288
6	402006	1	45	1	1	2	1	0.8467117832915392
6	402006	1	46	1	1	2	1	0.4693833511628327
6	402006	1	47	1	1	2	1	0.4732994701007555
6	402006	1	48	1	1	2	-1	0.4953703417450015
6	402006	1	49	1	1	2	1	0.8699617879319703
6	402006	1	50	1	1	2	1	0.4799643230326182
6	402006	1	51	2	0	2	1	0.4519946948275901
6	402006	1	52	2	0	2	-1	0.5867537671038008
6	402006	1	53	2	1	1	1	0.6734339543327224
6	402006	1	54	2	1	1	1	0.6346950763327186
6	402006	1	55	2	1	1	1	0.5259242312749848
6	402006	1	56	2	1	1	1	0.6121821071064915
6	402006	1	57	2	1	1	1	0.6113640506760492
6	402006	1	58	2	1	1	1	0.4488860995843424
6	402006	1	59	3	0	1	-1	0.4069542258948786
6	402006	1	60	3	1	2	-1	0.7809208614417003
7	402007	1	1	0	1	1	1	0.3867725000018254
7	402007	1	2	0	1	1	1	0.3921447999964584
7	402007	1	3	0	1	1	-1	1.0189467999953197
7	402007	1	4	0	0	2	-1	0.4687418000030448
7	402007	1	5	0	1	1	1	0.5617476999977953
7	402007	1	6	0	0	2	1	1.058090300000913
7	402007	1	7	0	0	2	-1	0.5634693000029074
7	402007	1	8	0	1	1	1	0.5160066000025836
7	402007	1	9	0	1	1	1	0.7125583000015467
7	402007	1	10	0	1	1	1	0.9793341000040529
7	402007	1	11	0	1	1	1	0.6680609000031836
7	402007	1	12	0	1	1	1	0.7675766000029398
7	402007	1	13	0	1	1	-1	0.8878672999999253
7	402007	1	14	1	1	2	1	0.4769163000019034
7	402007	1	15	1	1	2	1	0.6614861999987625
7	402007	1	16	1	1	2	-1	0.4036950000008801
7	402007	1	17	1	0	1	-1	0.493933099998685
7	402007	1	18	1	1	2	1	0.3941912000009324
7	402007	1	19	1	1	2	1	0.6654278999994858
7	402007	1	20	1	1	2	1	0.5516780999969342
7	402007	1	21	1	1	2	1	0.5715497999990475
7	402007	1	22	1	1	2	1	0.4891430999996373
7	402007	1	23	1	1	2	1	0.6282964000056381
7	402007	1	24	2	0	2	-1	0.8325965999974869
7	402007	1	25	2	1	1	-1	0.4355175000018789
7	402007	1	26	2	0	2	-1	0.4625726999947801
7	402007	1	27	2	1	1	1	0.5267045000000508
7	402007	1	28	2	1	1	-1	0.6177127000046312
7	402007	1	29	2	0	2	-1	0.4988617000053637
7	402007	1	30	2	1	1	1	0.5592781000013929
7	402007	1	31	2	1	1	1	0.6253498999940348
7	402007	1	32	2	1	1	1	1.048739600002591
7	402007	1	33	2	1	1	1	0.8248468000019784
7	402007	1	34	2	1	1	1	1.0909102000005078
7	402007	1	35	2	1	1	-1	0.7538797999950475
7	402007	1	36	2	0	2	1	0.8716548000011244
7	402007	1	37	2	0	2	-1	0.9414580000011484
7	402007	1	38	2	1	1	1	0.7905991000006907
7	402007	1	39	2	1	1	1	1.1353544000012334
7	402007	1	40	2	1	1	1	0.5700916000059806
7	402007	1	41	2	1	1	1	0.6087094999966212
7	402007	1	42	2	1	1	-1	0.7053804000024684
7	402007	1	43	2	0	2	-1	0.5178236000065226
7	402007	1	44	2	1	1	1	0.5244827999995323
7	402007	1	45	2	1	1	1	0.6193803000060143
7	402007	1	46	2	1	1	1	0.916517500001646
7	402007	1	47	2	1	1	1	0.6070031000053859
7	402007	1	48	2	1	1	1	0.8296568999940064
7	402007	1	49	2	1	1	1	0.8561173999987659
7	402007	1	50	2	1	1	1	0.5520486000023084
7	402007	1	51	3	0	1	-1	0.9990972000014152
7	402007	1	52	3	0	1	1	0.8367343999998411
7	402007	1	53	3	0	1	-1	0.4777037000021664
7	402007	1	54	3	1	2	1	0.3938963000036892
7	402007	1	55	3	1	2	1	0.5128449000039836
7	402007	1	56	3	1	2	-1	0.7672142000010354
7	402007	1	57	3	0	1	-1	0.7425119999970775
7	402007	1	58	3	1	2	1	0.5488984000039636
7	402007	1	59	3	1	2	1	1.0271782999989227
7	402007	1	60	3	1	2	1	0.7034312000032514
8	402008	1	1	0	1	1	1	0.3852507000001424
8	402008	1	2	0	1	1	-1	0.4490674000007857
8	402008	1	3	0	1	1	1	0.9738573999993604
8	402008	1	4	0	1	1	1	0.6044863999995869
8	402008	1	5	0	1	1	1	0.6418603000001895
8	402008	1	6	0	1	1	1	0.4265904000003502
8	402008	1	7	0	1	1	1	0.5194271999998819
8	402008	1	8	1	0	1	1	0.3456032000003688
8	402008	1	9	1	0	1	-1	0.5208909999992102
8	402008	1	10	1	0	1	-1	0.8185450999999375
8	402008	1	11	1	1	2	1	0.3978437999994639
8	402008	1	12	1	1	2	1	0.4853662999994412
8	402008	1	13	1	1	2	1	0.5620346000005156
8	402008	1	14	1	1	2	-1	0.6274390999997195
8	402008	1	15	1	0	1	-1	0.4775482000004558
8	402008	1	16	1	0	1	-1	0.7965744999992239
8	402008	1	17	1	1	2	1	0.4675251000007847
8	402008	1	18	1	1	2	1	0.6530156999997416
8	402008	1	19	1	1	2	1	0.5137228000003233
8	402008	1	20	1	1	2	1	0.4348692000003211
8	402008	1	21	1	1	2	1	0.4335291000006691
8	402008	1	22	1	1	2	1	0.3790616999995109
8	402008	1	23	1	1	2	1	0.5872701999996934
8	402008	1	24	2	0	2	-1	0.3914908999995532
8	402008	1	25	2	1	1	1	0.5527646000000459
8	402008	1	26	2	1	1	1	0.3973006000005625
8	402008	1	27	2	1	1	-1	0.3983008000004702
8	402008	1	28	2	0	2	-1	0.4026014999999461
8	402008	1	29	2	1	1	1	0.4492581000004065
8	402008	1	30	2	1	1	1	0.3721928999993906
8	402008	1	31	2	1	1	1	0.6784354999999778
8	402008	1	32	2	1	1	1	0.3894940999998653
8	402008	1	33	2	1	1	1	0.4553581999998641
8	402008	1	34	2	1	1	-1	0.3953308000000106
8	402008	1	35	3	1	2	1	0.4800801999999748
8	402008	1	36	3	1	2	1	0.521296999999322
8	402008	1	37	3	1	2	1	0.6259013999997478
8	402008	1	38	3	1	2	-1	0.5421712983333085
8	402008	1	39	3	0	1	1	0.6141295999996146
8	402008	1	40	3	0	1	-1	0.547809600000619
8	402008	1	41	3	1	2	1	0.4254997999996703
8	402008	1	42	3	1	2	-1	0.3951936000003115
8	402008	1	43	3	0	1	1	0.567639899999449
8	402008	1	44	3	0	1	-1	0.6967457999999169
8	402008	1	45	3	1	2	1	0.5482807999997021
8	402008	1	46	3	1	2	-1	0.3254644000007829
8	402008	1	47	3	0	1	-1	0.465604699999858
8	402008	1	48	3	0	1	-1	0.6859664000003249
8	402008	1	49	3	1	2	1	0.5730498000002626
8	402008	1	50	3	1	2	1	0.626067499999408
8	402008	1	51	3	1	2	1	0.7361087999997835
8	402008	1	52	3	1	2	1	0.6413992999996481
8	402008	1	53	3	1	2	1	0.7833484999991924
8	402008	1	54	3	1	2	1	0.653690799999822
8	402008	1	55	3	1	2	1	0.6470295999997688
8	402008	1	56	4	0	2	-1	0.4994653000003382
8	402008	1	57	4	1	1	1	0.5324904000008246
8	402008	1	58	4	1	1	1	0.512518600000476
8	402008	1	59	4	1	1	1	0.4247009000000616
8	402008	1	60	4	1	1	-1	0.4718786000003092
11	402011	1	1	0	1	1	1	0.5578927833324997
11	402011	1	2	0	1	1	1	0.3921033999940846
11	402011	1	3	0	1	1	-1	0.6133798999944702
11	402011	1	4	0	0	2	-1	0.5087932999886107
11	402011	1	5	0	1	1	1	0.4799978999944869
11	402011	1	6	0	1	1	1	0.4554545999853872
11	402011	1	7	0	1	1	1	0.5606652999995276
11	402011	1	8	0	1	1	1	0.4737616000056732
11	402011	1	9	0	1	1	-1	0.6153953000030015
11	402011	1	10	0	0	2	-1	0.5130496000056155
11	402011	1	11	0	1	1	1	0.4510200999793596
11	402011	1	12	0	1	1	1	0.5026978999958374
11	402011	1	13	0	1	1	-1	0.4795973000000231
11	402011	1	14	0	0	2	1	0.4791137999854982
11	402011	1	15	0	0	2	-1	0.5647997999913059
11	402011	1	16	0	1	1	-1	0.4281995999917853
11	402011	1	17	0	0	2	-1	0.6889370999997482
11	402011	1	18	0	0	2	1	0.4548344000068027
11	402011	1	19	0	1	1	1	0.569442700012587
11	402011	1	20	0	0	2	-1	0.5257572999980766
11	402011	1	21	0	0	2	-1	0.933727600000566
11	402011	1	22	0	1	1	1	0.5846894000133034
11	402011	1	23	0	1	1	1	0.4401782999921124
11	402011	1	24	0	1	1	1	0.6048826999904122
11	402011	1	25	0	1	1	1	0.5451743000012357
11	402011	1	26	0	1	1	1	0.5456467999902088
11	402011	1	27	0	1	1	1	0.4454352000029757
11	402011	1	28	1	0	1	-1	0.5881050000025425
11	402011	1	29	1	1	2	1	0.4483077999902889
11	402011	1	30	1	1	2	1	0.4217858000192791
11	402011	1	31	1	1	2	-1	0.4707181999983731
11	402011	1	32	1	0	1	-1	0.5981477999885101
11	402011	1	33	1	1	2	1	0.8606688999861944
11	402011	1	34	1	1	2	-1	0.5327846999862231
11	402011	1	35	1	0	1	1	1.081480199994985
11	402011	1	36	1	0	1	-1	0.518621199997142
11	402011	1	37	1	0	1	-1	0.5602967000158969
11	402011	1	38	1	1	2	1	0.4253543999802787
11	402011	1	39	1	1	2	1	0.4613958999980241
11	402011	1	40	1	1	2	1	0.5576092000119388
11	402011	1	41	1	1	2	1	0.5264203000115231
11	402011	1	42	1	1	2	-1	0.5277483999961987
11	402011	1	43	1	0	1	1	0.4535517000185791
11	402011	1	44	1	0	1	-1	0.9819353999919258
11	402011	1	45	1	1	2	1	0.3517911999952048
11	402011	1	46	1	1	2	1	0.8890499999979511
11	402011	1	47	1	1	2	1	0.5400018999935128
11	402011	1	48	1	1	2	1	0.832817900023656
11	402011	1	49	1	1	2	1	0.4259025999926962
11	402011	1	50	1	1	2	1	0.4768058999907225
11	402011	1	51	1	1	2	-1	0.4147865000122692
11	402011	1	52	2	1	1	1	0.401680100010708
11	402011	1	53	2	1	1	-1	0.4527874000195879
11	402011	1	54	2	0	2	-1	0.3621361999830697
11	402011	1	55	2	1	1	1	0.5619192000012845
11	402011	1	56	2	1	1	-1	0.586648199998308
11	402011	1	57	2	0	2	-1	0.4988097000168636
11	402011	1	58	2	1	1	-1	0.5349282000097446
11	402011	1	59	2	1	1	1	0.5069135999947321
11	402011	1	60	2	0	2	-1	0.4433500999875832
12	402012	1	1	0	1	1	1	0.7367419165639149
12	402012	1	2	0	1	1	-1	0.2787189554364886
12	402012	1	3	0	1	1	1	0.3167127490742132
12	402012	1	4	0	1	1	1	0.5799281664767477
12	402012	1	5	0	1	1	1	0.5706003822015191
12	402012	1	6	0	1	1	1	0.5292922416138026
12	402012	1	7	1	0	1	-1	0.4238542701441474
12	402012	1	8	1	0	1	-1	1.5
12	402012	1	9	1	0	1	1	0.4385372599681432
12	402012	1	10	1	0	1	-1	0.5884978557241993
12	402012	1	11	1	0	1	-1	0.4664658889687416
12	402012	1	12	1	1	2	1	0.6177760299124202
12	402012	1	13	1	1	2	1	0.5596822060688282
12	402012	1	14	1	1	2	1	0.6462815778886579
12	402012	1	15	1	1	2	1	0.6689523911991273
12	402012	1	16	1	1	2	-1	0.8516835924056068
12	402012	1	17	1	0	1	1	0.6975547106849262
12	402012	1	18	1	0	1	-1	0.6722219078947091
12	402012	1	19	1	0	1	-1	0.9502319269940926
12	402012	1	20	1	1	2	1	0.6048203960945102
12	402012	1	21	1	1	2	1	0.6114450707282231
12	402012	1	22	1	1	2	-1	0.6021055378350866
12	402012	1	23	1	0	1	-1	0.4160652456412208
12	402012	1	24	1	0	1	1	0.8713458320071368
12	402012	1	25	1	0	1	-1	0.4293795214780402
12	402012	1	26	1	1	2	1	0.4832735235941072
12	402012	1	27	1	1	2	1	0.3299373644076695
12	402012	1	28	1	1	2	1	0.3205792810658749
12	402012	1	29	1	1	2	1	1.0312865695050275
12	402012	1	30	1	1	2	-1	0.6698363201103348
12	402012	1	31	1	0	1	-1	0.468513549401905
12	402012	1	32	1	0	1	-1	0.6064533671997197
12	402012	1	33	1	1	2	1	0.7377677564127225
12	402012	1	34	1	1	2	-1	0.439663890592783
12	402012	1	35	1	0	1	-1	1.0216919679351122
12	402012	1	36	1	0	1	-1	1.5
12	402012	1	37	1	0	1	-1	0.7002788441714074
12	402012	1	38	1	0	1	-1	1.0108523220369534
12	402012	1	39	1	0	1	-1	1.5
12	402012	1	40	1	0	1	-1	0.4975351090452022
12	402012	1	41	1	0	1	-1	0.4401576417185424
12	402012	1	42	1	1	2	1	1.1187423537376162
12	402012	1	43	1	1	2	1	0.3087623356623226
12	402012	1	44	1	0	1	1	1.0353491179103005
12	402012	1	45	1	0	1	-1	0.4180758051752491
12	402012	1	46	1	1	2	1	0.8879376630702609
12	402012	1	47	1	1	2	1	0.4619519462976313
12	402012	1	48	1	1	2	1	0.3406239690975781
12	402012	1	49	1	1	2	-1	0.5712511937981617
12	402012	1	50	1	0	1	-1	0.4332698598809656
12	402012	1	51	1	1	2	1	0.7925391947810567
12	402012	1	52	1	1	2	1	0.3664597982387931
12	402012	1	53	1	1	2	1	0.3578329117735848
12	402012	1	54	1	1	2	1	0.6524149747874617
12	402012	1	55	1	1	2	1	0.4510195481543633
12	402012	1	56	1	1	2	1	0.4257065325091389
12	402012	1	57	1	1	2	-1	0.5284005833491392
12	402012	1	58	2	0	2	-1	0.5983005315010814
12	402012	1	59	2	1	1	1	0.7809040437805379
12	402012	1	60	2	1	1	1	0.3549105976544524
13	402013	1	1	0	1	1	1	0.8116967999376357
13	402013	1	2	0	1	1	1	0.3756954000564292
13	402013	1	3	0	0	2	-1	0.3416523000923916
13	402013	1	4	0	1	1	-1	0.612562199938111
13	402013	1	5	0	1	1	1	0.5709822000935674
13	402013	1	6	0	1	1	1	0.5302966000745073
13	402013	1	7	0	1	1	1	0.5287301000207663
13	402013	1	8	0	0	2	-1	0.5349284999538213
13	402013	1	9	0	1	1	1	0.7175717999925837
13	402013	1	10	0	1	1	-1	0.4764890000224113
13	402013	1	11	0	1	1	-1	0.5387158000376076
13	402013	1	12	0	0	2	1	0.6816340999212116
13	402013	1	13	0	0	2	-1	0.5124373000580817
13	402013	1	14	0	0	2	-1	0.4546105999033898
13	402013	1	15	0	0	2	-1	0.6300272999797016
13	402013	1	16	0	1	1	1	0.4609196000965312
13	402013	1	17	0	1	1	1	0.5229332000017166
13	402013	1	18	0	1	1	1	0.5458363000070676
13	402013	1	19	0	1	1	1	0.4491962000029161
13	402013	1	20	0	1	1	-1	0.5282453000545502
13	402013	1	21	0	0	2	1	0.5018313000909984
13	402013	1	22	0	0	2	-1	0.420812200056389
13	402013	1	23	0	0	2	-1	0.5328464999329299
13	402013	1	24	0	1	1	1	0.6587415999965742
13	402013	1	25	0	1	1	1	0.5483202150072126
13	402013	1	26	0	1	1	1	0.5037079999456182
13	402013	1	27	0	1	1	1	0.4158731999341398
13	402013	1	28	0	1	1	1	0.4306898000650108
13	402013	1	29	0	0	2	1	0.373619099962525
13	402013	1	30	0	0	2	-1	0.4509203000925481
13	402013	1	31	0	0	2	-1	0.3536943999351933
13	402013	1	32	0	1	1	1	0.6966876001097262
13	402013	1	33	0	1	1	1	0.4714608000358566
13	402013	1	34	0	1	1	1	0.5264539999188855
13	402013	1	35	0	1	1	-1	0.4772139000706374
13	402013	1	36	0	0	2	-1	0.4995468999259174
13	402013	1	37	0	0	2	-1	0.4752220000373199
13	402013	1	38	0	1	1	-1	0.5294777000090107
13	402013	1	39	0	1	1	1	0.776360800024122
13	402013	1	40	0	1	1	1	0.5106792999431491
13	402013	1	41	0	1	1	1	0.4847293000202626
13	402013	1	42	0	1	1	1	0.4514698000857606
13	402013	1	43	0	1	1	1	0.4900604999857023
13	402013	1	44	1	0	1	1	0.3452980000292882
13	402013	1	45	1	0	1	-1	0.5124880999792367
13	402013	1	46	1	1	2	-1	0.7433228999143466
13	402013	1	47	1	1	2	1	0.4846135000698268
13	402013	1	48	1	1	2	1	0.4358989000320434
13	402013	1	49	1	1	2	-1	0.5631416999967769
13	402013	1	50	1	0	1	-1	0.5483202150072126
13	402013	1	51	1	1	2	1	0.4483976000919938
13	402013	1	52	1	1	2	1	0.6074302999768406
13	402013	1	53	1	1	2	1	0.6137697999365628
13	402013	1	54	1	1	2	1	0.4756072000600397
13	402013	1	55	1	1	2	-1	0.5217599999159575
13	402013	1	56	1	0	1	1	0.6011933999834582
13	402013	1	57	1	0	1	-1	0.5514927000040188
13	402013	1	58	1	0	1	-1	0.663197899935767
13	402013	1	59	1	1	2	-1	0.5727325000334531
13	402013	1	60	1	1	2	1	0.6031328999670222
14	402014	1	1	0	0	2	-1	0.3247971000000689
14	402014	1	2	0	1	1	-1	0.4654420000006212
14	402014	1	3	0	0	2	-1	0.2765150000013818
14	402014	1	4	0	1	1	-1	0.3229384999995091
14	402014	1	5	0	1	1	1	0.2840142000004562
14	402014	1	6	0	1	1	1	0.4718965000010939
14	402014	1	7	0	1	1	1	0.4698458000002574
14	402014	1	8	0	1	1	1	0.4310007999993104
14	402014	1	9	0	1	1	1	0.3555863000001409
14	402014	1	10	1	0	1	1	0.4677504000010231
14	402014	1	11	1	0	1	-1	0.4548887000000832
14	402014	1	12	1	1	2	1	0.3402119999991555
14	402014	1	13	1	1	2	1	0.3903300000001763
14	402014	1	14	1	1	2	1	0.2855684999994992
14	402014	1	15	1	1	2	1	0.4238051000011182
14	402014	1	16	1	1	2	1	0.4581441999998787
14	402014	1	17	1	1	2	1	0.322822800000722
14	402014	1	18	2	0	2	-1	0.3660677000007126
14	402014	1	19	2	1	1	1	0.4612151999990601
14	402014	1	20	2	1	1	1	0.4698479000016959
14	402014	1	21	2	1	1	1	0.416807699999481
14	402014	1	22	2	1	1	1	0.3479111999986344
14	402014	1	23	2	1	1	-1	0.4392545000009704
14	402014	1	24	2	0	2	-1	0.4077259999994567
14	402014	1	25	2	0	2	-1	0.41097241355930886
14	402014	1	26	2	1	1	1	0.3890784999985044
14	402014	1	27	2	1	1	1	0.363613899999109
14	402014	1	28	2	1	1	1	0.4038043000000471
14	402014	1	29	2	1	1	1	0.3883745999992243
14	402014	1	30	2	1	1	-1	0.3997984000016004
14	402014	1	31	2	0	2	1	0.3672605000010662
14	402014	1	32	2	0	2	-1	0.3652987999994366
14	402014	1	33	2	1	1	1	1.5
14	402014	1	34	2	1	1	-1	0.6997116999991704
14	402014	1	35	2	0	2	-1	0.2902725999992981
14	402014	1	36	2	0	2	-1	0.3338246000002982
14	402014	1	37	2	1	1	1	0.2625027000012778
14	402014	1	38	2	1	1	1	0.4485831000001781
14	402014	1	39	2	1	1	1	0.4054243000009592
14	402014	1	40	2	1	1	1	0.3563923000001523
14	402014	1	41	2	1	1	1	0.3645673999999417
14	402014	1	42	2	1	1	1	0.3935449000000517
14	402014	1	43	3	0	1	1	0.4124900000006164
14	402014	1	44	3	0	1	-1	0.306425599999784
14	402014	1	45	3	0	1	-1	0.3994225999995251
14	402014	1	46	3	1	2	1	0.5605420000010781
14	402014	1	47	3	1	2	1	0.3138739000005444
14	402014	1	48	3	1	2	1	0.4838224999984959
14	402014	1	49	3	1	2	-1	0.44693819999884
14	402014	1	50	3	1	2	1	0.3218238999997993
14	402014	1	51	3	1	2	1	0.5361648999987665
14	402014	1	52	3	1	2	1	0.34920670000065
14	402014	1	53	4	0	2	-1	0.412293999999747
14	402014	1	54	4	0	2	-1	0.4225301999995281
14	402014	1	55	4	1	1	1	0.4338100999993912
14	402014	1	56	4	1	1	1	0.3682243000002927
14	402014	1	57	4	1	1	1	0.426718400000027
14	402014	1	58	4	1	1	1	0.3458700999999564
14	402014	1	59	4	1	1	1	0.3419749999993655
14	402014	1	60	4	1	1	1	0.5045760999983031
15	402015	1	1	0	0	2	-1	0.283852399999887
15	402015	1	2	0	1	1	1	0.3805374000003212
15	402015	1	3	0	1	1	-1	0.5180853999991086
15	402015	1	4	0	0	2	-1	0.8164702000030957
15	402015	1	5	0	1	1	1	0.4753451999968092
15	402015	1	6	0	1	1	1	0.4863824999993085
15	402015	1	7	0	1	1	1	0.3530711000021256
15	402015	1	8	0	1	1	-1	0.4115493999997852
15	402015	1	9	0	0	2	1	0.6353891999970074
15	402015	1	10	0	0	2	-1	0.3887995000004594
15	402015	1	11	0	1	1	1	0.4768172000003687
15	402015	1	12	0	1	1	-1	0.4562538999998651
15	402015	1	13	0	1	1	1	0.4029351000026508
15	402015	1	14	0	1	1	1	0.4949536999993142
15	402015	1	15	0	1	1	1	0.8605151000010665
15	402015	1	16	0	1	1	1	0.444179999998596
15	402015	1	17	0	1	1	1	0.4046455000025162
15	402015	1	18	1	0	1	-1	0.6116486999999324
15	402015	1	19	1	1	2	1	0.3888159000016458
15	402015	1	20	1	1	2	-1	0.4237221000003046
15	402015	1	21	1	0	1	-1	0.7094581000019389
15	402015	1	22	1	0	1	1	0.5333742783336372
15	402015	1	23	1	0	1	-1	0.4535938000008173
15	402015	1	24	1	1	2	1	0.6796470000008412
15	402015	1	25	1	1	2	1	0.5682134000016958
15	402015	1	26	1	1	2	-1	0.393570100000943
15	402015	1	27	1	1	2	1	0.5754512999992585
15	402015	1	28	1	1	2	1	0.3577103999996325
15	402015	1	29	1	0	1	-1	0.5424989999992249
15	402015	1	30	1	0	1	-1	0.8349693000018306
15	402015	1	31	1	1	2	1	0.4842327000005753
15	402015	1	32	1	1	2	1	0.4013190000005124
15	402015	1	33	1	1	2	-1	0.430871799999295
15	402015	1	34	1	1	2	1	0.5456254999990051
15	402015	1	35	1	1	2	1	0.6606959999990067
15	402015	1	36	1	1	2	1	0.3810938999995414
15	402015	1	37	2	0	2	-1	0.4575863000027311
15	402015	1	38	2	1	1	1	0.3645274000009522
15	402015	1	39	2	0	2	-1	0.952497599999333
15	402015	1	40	2	1	1	1	0.2869708999969589
15	402015	1	41	2	0	2	1	0.4543670000020938
15	402015	1	42	2	1	1	1	0.3503707999989274
15	402015	1	43	2	0	2	-1	0.3551933000017016
15	402015	1	44	2	1	1	1	0.612165599999571
15	402015	1	45	2	0	2	1	0.6271921000006841
15	402015	1	46	2	1	1	1	0.8017870000003313
15	402015	1	47	2	0	2	-1	0.9328050000003714
15	402015	1	48	2	0	2	-1	0.979762999999366
15	402015	1	49	2	1	1	1	0.384424100000615
15	402015	1	50	2	1	1	-1	0.51708630000212
15	402015	1	51	2	0	2	-1	0.7841117999996641
15	402015	1	52	2	0	2	-1	0.5146953000003123
15	402015	1	53	2	0	2	-1	0.4494183999995584
15	402015	1	54	2	1	1	1	0.3508460999983072
15	402015	1	55	2	1	1	1	0.3846701000002213
15	402015	1	56	2	1	1	-1	0.6582216000024346
15	402015	1	57	2	0	2	-1	0.5743485000020883
15	402015	1	58	2	1	1	-1	0.4709306000004289
15	402015	1	59	2	1	1	1	0.3712740000009944
15	402015	1	60	2	0	2	-1	0.5360011000011582
16	402016	1	1	0	1	1	1	0.7758659999999509
16	402016	1	2	0	1	1	1	0.5149363000000449
16	402016	1	3	0	1	1	-1	1.2259597000002032
16	402016	1	4	0	0	2	-1	0.6371758549999413
16	402016	1	5	0	1	1	1	0.7797940000000381
16	402016	1	6	0	1	1	1	0.6470183000001271
16	402016	1	7	0	1	1	1	0.4333019999994576
16	402016	1	8	0	1	1	1	0.4389586999996027
16	402016	1	9	0	1	1	1	1.191930599999978
16	402016	1	10	0	1	1	1	0.4371055000001433
16	402016	1	11	1	0	1	1	0.5002810000005411
16	402016	1	12	1	0	1	-1	0.4652192000003197
16	402016	1	13	1	1	2	1	0.5467079000000012
16	402016	1	14	1	1	2	-1	0.6031795999997485
16	402016	1	15	1	1	2	-1	0.6971731000003274
16	402016	1	16	1	0	1	-1	0.4327406000002156
16	402016	1	17	1	0	1	-1	0.7607747000001837
16	402016	1	18	1	1	2	-1	0.595079399999122
16	402016	1	19	1	1	2	1	0.6060262000000876
16	402016	1	20	1	1	2	1	0.4480149999999412
16	402016	1	21	1	1	2	-1	0.6025511999996525
16	402016	1	22	1	0	1	-1	0.8729887999998027
16	402016	1	23	1	1	2	1	0.7581875999994736
16	402016	1	24	1	1	2	1	0.6932226999997511
16	402016	1	25	1	1	2	1	0.6491961000001538
16	402016	1	26	1	1	2	1	0.4725097999998979
16	402016	1	27	1	1	2	1	0.4824134000000413
16	402016	1	28	1	1	2	1	0.4965145999995002
16	402016	1	29	2	0	2	1	0.6212082000001828
16	402016	1	30	2	0	2	-1	0.4906193999995594
16	402016	1	31	2	1	1	1	0.4012449000001652
16	402016	1	32	2	1	1	1	0.8064248999999108
16	402016	1	33	2	1	1	1	0.6532976999997118
16	402016	1	34	2	1	1	1	0.4795987999996214
16	402016	1	35	2	1	1	1	0.5500932000004468
16	402016	1	36	2	1	1	1	0.5143637000001036
16	402016	1	37	2	1	1	1	0.5476253999995606
16	402016	1	38	3	0	1	-1	0.4964545000002545
16	402016	1	39	3	1	2	1	0.4747015000002648
16	402016	1	40	3	1	2	-1	0.5895768999998836
16	402016	1	41	3	0	1	1	0.4277494999996634
16	402016	1	42	3	0	1	-1	0.4867881999998644
16	402016	1	43	3	1	2	1	0.3674983999999313
16	402016	1	44	3	1	2	1	0.454442399999607
16	402016	1	45	3	1	2	1	0.6310664000002362
16	402016	1	46	3	1	2	1	1.1134352999997643
16	402016	1	47	3	1	2	1	0.6190847000007125
16	402016	1	48	3	1	2	-1	0.439032600000246
16	402016	1	49	3	0	1	-1	0.4775972999996156
16	402016	1	50	3	1	2	-1	0.5750862999993842
16	402016	1	51	3	1	2	1	0.5785169999999198
16	402016	1	52	3	1	2	1	0.8151797999998962
16	402016	1	53	3	1	2	1	0.6025201000002198
16	402016	1	54	3	1	2	1	0.5767310000001089
16	402016	1	55	3	1	2	1	0.9122717000000192
16	402016	1	56	3	1	2	1	0.590613299999859
16	402016	1	57	4	0	2	-1	0.645336400000815
16	402016	1	58	4	1	1	1	0.65512199999921
16	402016	1	59	4	1	1	-1	0.8256542999997691
16	402016	1	60	4	1	1	-1	0.6371758549999413
18	402018	1	1	0	1	1	1	0.3882731999983662
18	402018	1	2	0	1	1	1	0.466144300000451
18	402018	1	3	0	1	1	-1	0.6191311169490198
18	402018	1	4	0	0	2	-1	0.6036502999995719
18	402018	1	5	0	1	1	1	0.5899414999985311
18	402018	1	6	0	1	1	1	0.7367497000013827
18	402018	1	7	0	1	1	-1	1.116741900001216
18	402018	1	8	0	1	1	1	1.1361410999998045
18	402018	1	9	0	1	1	-1	0.9432467999977234
18	402018	1	10	0	1	1	1	0.4741608999975142
18	402018	1	11	0	1	1	1	0.4014776999974856
18	402018	1	12	1	0	1	-1	0.5953912999975728
18	402018	1	13	1	1	2	1	1.5
18	402018	1	14	1	1	2	1	0.5798272000029101
18	402018	1	15	1	1	2	1	0.6670569000016258
18	402018	1	16	1	1	2	1	0.5021150000029593
18	402018	1	17	1	1	2	1	0.7491568000004918
18	402018	1	18	1	1	2	-1	0.5461316000000807
18	402018	1	19	2	1	1	1	0.5353119999999763
18	402018	1	20	2	1	1	1	0.4820377000032749
18	402018	1	21	2	1	1	1	0.649033400000917
18	402018	1	22	2	1	1	1	0.6221593999980541
18	402018	1	23	2	1	1	1	0.4694520999983069
18	402018	1	24	2	1	1	-1	0.9974167999971542
18	402018	1	25	2	0	2	1	0.4681489000031433
18	402018	1	26	2	0	2	-1	0.5441957000002731
18	402018	1	27	2	1	1	1	0.6694873999986157
18	402018	1	28	2	1	1	1	0.5189166999989538
18	402018	1	29	2	1	1	-1	1.1324518000001262
18	402018	1	30	2	0	2	-1	0.8134742000002007
18	402018	1	31	2	1	1	1	0.4705705000014859
18	402018	1	32	2	1	1	1	0.4928690000015194
18	402018	1	33	2	1	1	-1	0.6039281000012124
18	402018	1	34	2	1	1	-1	0.4376039999988279
18	402018	1	35	2	1	1	1	0.5416033000001335
18	402018	1	36	2	1	1	1	0.6096656000008807
18	402018	1	37	2	1	1	-1	0.545328200001677
18	402018	1	38	3	1	2	1	0.5132993999977771
18	402018	1	39	3	1	2	1	1.0136143999989145
18	402018	1	40	3	1	2	1	0.5944321999995736
18	402018	1	41	3	1	2	-1	0.3917610999997123
18	402018	1	42	3	0	1	-1	0.3956730000027164
18	402018	1	43	3	0	1	1	0.5729573999997228
18	402018	1	44	3	0	1	-1	0.6324553999984346
18	402018	1	45	3	1	2	-1	0.7206138000001374
18	402018	1	46	3	0	1	-1	0.5905125999997836
18	402018	1	47	3	1	2	1	0.5828462000026775
18	402018	1	48	3	1	2	-1	0.5730433999997331
18	402018	1	49	3	1	2	1	0.5991945999994641
18	402018	1	50	3	0	1	-1	0.4235029999981634
18	402018	1	51	3	0	1	-1	0.51424279999992
18	402018	1	52	3	1	2	1	0.7573125999988406
18	402018	1	53	3	1	2	-1	0.422714199998154
18	402018	1	54	3	0	1	1	0.3464065000007394
18	402018	1	55	3	0	1	-1	0.5424016999968444
18	402018	1	56	3	0	1	-1	0.7616985999993631
18	402018	1	57	3	0	1	1	0.5078851999969629
18	402018	1	58	3	0	1	-1	0.5227412000022014
18	402018	1	59	3	1	2	1	0.4039264999992156
18	402018	1	60	3	1	2	1	0.7302591000006942
19	402019	1	1	0	1	1	1	0.6971880000055535
19	402019	1	2	0	1	1	1	0.5122087999916403
19	402019	1	3	0	1	1	-1	0.5449249000084819
19	402019	1	4	0	1	1	1	0.5793822999985423
19	402019	1	5	0	1	1	1	0.530024300009245
19	402019	1	6	0	1	1	1	0.6067433999996865
19	402019	1	7	1	0	1	-1	0.4635001999995438
19	402019	1	8	1	0	1	-1	0.4298116999998456
19	402019	1	9	1	1	2	1	0.702816700009862
19	402019	1	10	1	1	2	1	0.3891762999992352
19	402019	1	11	1	1	2	-1	0.4162951000034809
19	402019	1	12	1	1	2	-1	0.4052232999965781
19	402019	1	13	1	0	1	1	0.4762379999883706
19	402019	1	14	1	0	1	-1	0.4306190999923274
19	402019	1	15	1	0	1	-1	1.5
19	402019	1	16	1	1	2	1	0.4894884999957867
19	402019	1	17	1	1	2	1	0.434843600000022
19	402019	1	18	1	1	2	1	0.3507832000032067
19	402019	1	19	1	1	2	-1	0.8561216999951284
19	402019	1	20	1	1	2	1	0.5240905999962706
19	402019	1	21	1	1	2	-1	0.6661214000050677
19	402019	1	22	2	0	2	-1	0.7279739000077825
19	402019	1	23	2	1	1	1	0.4606693999958224
19	402019	1	24	2	1	1	-1	0.5947836999985157
19	402019	1	25	2	0	2	-1	0.7620959000050789
19	402019	1	26	2	1	1	1	0.3384400000068126
19	402019	1	27	2	1	1	1	0.33794179999677
19	402019	1	28	2	1	1	1	0.4075685999996494
19	402019	1	29	2	0	2	1	0.396231099992292
19	402019	1	30	2	0	2	-1	0.5551491000078386
19	402019	1	31	2	1	1	1	0.4101094000070588
19	402019	1	32	2	1	1	1	0.584259800001746
19	402019	1	33	2	1	1	1	0.6618901999900118
19	402019	1	34	2	1	1	1	0.2845971999922767
19	402019	1	35	2	1	1	-1	0.5173140000115382
19	402019	1	36	2	1	1	1	0.4664559999946505
19	402019	1	37	3	0	1	-1	0.5231777000008151
19	402019	1	38	3	1	2	1	0.5052474999974947
19	402019	1	39	3	1	2	1	0.4895294000016292
19	402019	1	40	3	1	2	1	0.4824508000019705
19	402019	1	41	3	1	2	1	0.5236146000097506
19	402019	1	42	3	1	2	1	0.5201169169499041
19	402019	1	43	3	1	2	-1	0.5786651999951573
19	402019	1	44	3	0	1	-1	0.2637194999988423
19	402019	1	45	3	1	2	1	0.3381727999949362
19	402019	1	46	3	1	2	1	0.4770422000001417
19	402019	1	47	3	1	2	1	0.5062185999995563
19	402019	1	48	3	1	2	1	0.5321319000067888
19	402019	1	49	3	1	2	1	0.3809216999943601
19	402019	1	50	3	1	2	1	0.5557611999975052
19	402019	1	51	3	1	2	1	0.5605720000021392
19	402019	1	52	4	0	2	-1	0.3348240000050282
19	402019	1	53	4	0	2	-1	0.6162943999952404
19	402019	1	54	4	0	2	-1	0.879265800002031
19	402019	1	55	4	1	1	1	0.5760527000093134
19	402019	1	56	4	1	1	-1	0.342645700002322
19	402019	1	57	4	1	1	-1	0.4510971000127028
19	402019	1	58	4	0	2	1	0.6196075000043493
19	402019	1	59	4	0	2	-1	0.4640867999987677
19	402019	1	60	4	0	2	-1	0.5569303000083892
20	402020	1	1	0	1	1	1	0.7827637999871513
20	402020	1	2	0	1	1	1	0.7526837000041269
20	402020	1	3	0	1	1	-1	0.8238982000038959
20	402020	1	4	0	0	2	-1	1.2127520999929402
20	402020	1	5	0	1	1	1	0.9374108000047272
20	402020	1	6	0	1	1	-1	0.6657059999997728
20	402020	1	7	0	0	2	-1	0.6562798999948427
20	402020	1	8	0	1	1	1	0.8069640999892727
20	402020	1	9	0	1	1	1	0.7233997000003001
20	402020	1	10	0	1	1	1	0.8116351999924518
20	402020	1	11	0	1	1	-1	0.7009931999928085
20	402020	1	12	0	0	2	1	0.7255383000010625
20	402020	1	13	0	0	2	-1	1.2169743999984348
20	402020	1	14	0	1	1	1	0.8595233000087319
20	402020	1	15	0	1	1	1	0.8737860999972327
20	402020	1	16	0	1	1	-1	0.7005170999909751
20	402020	1	17	0	0	2	-1	0.8132418000022881
20	402020	1	18	0	1	1	1	0.6619719000009354
20	402020	1	19	0	1	1	1	0.7424509999982547
20	402020	1	20	0	1	1	1	0.8672058999945875
20	402020	1	21	0	1	1	-1	1.1600958999915747
20	402020	1	22	0	1	1	1	0.6703798999951687
20	402020	1	23	0	1	1	1	0.5612256000022171
20	402020	1	24	1	0	1	-1	0.6139086000039242
20	402020	1	25	1	1	2	1	0.6928398000018205
20	402020	1	26	1	0	1	-1	1.153389300001436
20	402020	1	27	1	1	2	1	0.6114463999983855
20	402020	1	28	1	1	2	1	0.7962521000008564
20	402020	1	29	1	1	2	1	1.3146816000080437
20	402020	1	30	1	1	2	1	1.0453906000038842
20	402020	1	31	1	1	2	1	0.6700963000039337
20	402020	1	32	1	1	2	1	0.7963904999924125
20	402020	1	33	1	1	2	1	0.9273624000052224
20	402020	1	34	2	0	2	1	0.8214078000019072
20	402020	1	35	2	0	2	-1	1.011759400003939
20	402020	1	36	2	1	1	1	0.7286854000121821
20	402020	1	37	2	1	1	1	0.8797814999998081
20	402020	1	38	2	1	1	1	0.7723303999955533
20	402020	1	39	2	1	1	-1	0.9552162000036332
20	402020	1	40	2	1	1	1	0.9733839000109584
20	402020	1	41	2	1	1	1	0.7011590000038268
20	402020	1	42	3	0	1	1	1.0820010000024922
20	402020	1	43	3	0	1	-1	0.990410200000042
20	402020	1	44	3	0	1	-1	0.9996765999967464
20	402020	1	45	3	1	2	1	0.9453517000074498
20	402020	1	46	3	1	2	-1	1.373309300004621
20	402020	1	47	3	1	2	1	1.1979125999932876
20	402020	1	48	3	1	2	1	0.72662400000263
20	402020	1	49	3	1	2	1	0.90916819999984
20	402020	1	50	3	1	2	1	0.8707207999977982
20	402020	1	51	4	0	2	-1	1.1974224000005051
20	402020	1	52	4	0	2	-1	0.6180313000077149
20	402020	1	53	4	1	1	1	0.6159972000023117
20	402020	1	54	4	1	1	1	0.5200984999974025
20	402020	1	55	4	1	1	1	1.1345341999985976
20	402020	1	56	4	1	1	-1	1.0693782000016654
20	402020	1	57	4	1	1	-1	0.8055043999920599
20	402020	1	58	4	0	2	1	0.8789538999990327
20	402020	1	59	4	0	2	-1	0.6432933999894885
20	402020	1	60	4	0	2	-1	0.6813281000067946
21	402021	1	1	0	1	1	1	0.3442500999990443
21	402021	1	2	0	1	1	-1	0.4416095999986282
21	402021	1	3	0	0	2	-1	0.4983959999990475
21	402021	1	4	0	1	1	1	0.4848436000029323
21	402021	1	5	0	1	1	1	0.4650127999993856
21	402021	1	6	0	1	1	1	0.5155661999997392
21	402021	1	7	0	1	1	1	0.5367493999983708
21	402021	1	8	0	1	1	1	0.4923812000015459
21	402021	1	9	0	1	1	1	0.547070700002223
21	402021	1	10	1	0	1	-1	0.7492357000010088
21	402021	1	11	1	1	2	-1	0.3827763000008417
21	402021	1	12	1	0	1	1	0.5066703999982565
21	402021	1	13	1	0	1	-1	0.4257625999998708
21	402021	1	14	1	1	2	-1	0.4405378999981622
21	402021	1	15	1	0	1	-1	0.4443475000007311
21	402021	1	16	1	1	2	1	0.4812441000030958
21	402021	1	17	1	1	2	1	0.457480699998996
21	402021	1	18	1	1	2	1	0.5395352999985334
21	402021	1	19	1	1	2	1	0.5798786999985168
21	402021	1	20	1	1	2	1	0.6811388999994961
21	402021	1	21	1	1	2	1	0.710246400001779
21	402021	1	22	2	0	2	-1	0.7101342999994813
21	402021	1	23	2	0	2	1	1.5
21	402021	1	24	2	1	1	-1	0.584438300000329
21	402021	1	25	2	0	2	-1	0.5373397000003024
21	402021	1	26	2	1	1	1	0.4805659999983618
21	402021	1	27	2	1	1	1	0.4778881999991426
21	402021	1	28	2	1	1	-1	0.4705756000003021
21	402021	1	29	2	0	2	-1	0.4213691000004473
21	402021	1	30	2	1	1	1	0.5272626000005403
21	402021	1	31	2	1	1	1	0.4218055999990611
21	402021	1	32	2	1	1	1	0.4429336000030162
21	402021	1	33	2	1	1	-1	0.465388399999938
21	402021	1	34	2	0	2	-1	0.4624954999999318
21	402021	1	35	2	1	1	1	0.397353699998348
21	402021	1	36	2	1	1	-1	0.4813952000004065
21	402021	1	37	2	0	2	1	0.5268321000003198
21	402021	1	38	2	0	2	-1	0.5146640999992087
21	402021	1	39	2	1	1	1	0.4227751000034914
21	402021	1	40	2	1	1	1	0.5378029000021343
21	402021	1	41	2	1	1	1	0.3633900000022549
21	402021	1	42	2	1	1	1	0.3735803999989002
21	402021	1	43	2	1	1	1	0.5556875000002037
21	402021	1	44	2	1	1	1	0.5252990915253931
21	402021	1	45	2	1	1	-1	0.5959595999993326
21	402021	1	46	3	1	2	1	0.3618882999980997
21	402021	1	47	3	1	2	-1	0.5083091999986209
21	402021	1	48	3	0	1	-1	0.3834879999994882
21	402021	1	49	3	1	2	1	0.3908545999984198
21	402021	1	50	3	1	2	1	0.6141155999976036
21	402021	1	51	3	1	2	1	0.466800800000783
21	402021	1	52	3	1	2	1	0.5016166000023077
21	402021	1	53	3	1	2	-1	0.9423036000007414
21	402021	1	54	3	0	1	-1	0.3729590000002645
21	402021	1	55	3	1	2	1	0.6127019000014116
21	402021	1	56	3	0	1	-1	0.5252990915253931
21	402021	1	57	3	1	2	1	0.4808395999971253
21	402021	1	58	3	1	2	1	0.5549661000004562
21	402021	1	59	3	1	2	1	0.4621364000013273
21	402021	1	60	3	1	2	1	0.5118571999992128
23	402023	1	1	0	1	1	-1	0.6159691103548539
23	402023	1	2	0	0	2	-1	0.501417228477294
23	402023	1	3	0	1	1	1	0.6309616192029353
23	402023	1	4	0	0	2	1	0.9209480838053424
23	402023	1	5	0	1	1	1	0.8197250749890372
23	402023	1	6	0	1	1	1	0.6633389828730287
23	402023	1	7	0	1	1	1	0.7869250779567665
23	402023	1	8	0	1	1	-1	0.7526342703404225
23	402023	1	9	0	1	1	1	0.7533271169850195
23	402023	1	10	0	1	1	1	0.6772886663147801
23	402023	1	11	0	1	1	1	0.5789430888762581
23	402023	1	12	1	0	1	-1	0.5136309307017655
23	402023	1	13	1	0	1	-1	0.502290938702572
23	402023	1	14	1	0	1	-1	0.5809387716490164
23	402023	1	15	1	0	1	-1	0.5605985749807587
23	402023	1	16	1	1	2	1	0.6422815152473049
23	402023	1	17	1	1	2	1	0.6382286251700862
23	402023	1	18	1	1	2	1	0.6868629969194444
23	402023	1	19	1	1	2	1	0.7135575340962532
23	402023	1	20	1	1	2	1	0.5792293789236282
23	402023	1	21	1	1	2	-1	0.4929070559064712
23	402023	1	22	2	0	2	-1	0.8955124808235269
23	402023	1	23	2	0	2	1	0.4911803497434448
23	402023	1	24	2	1	1	1	0.5591788731562701
23	402023	1	25	2	1	1	-1	0.4628299059950223
23	402023	1	26	2	1	1	1	0.4438194431131705
23	402023	1	27	2	1	1	-1	0.4058090290800464
23	402023	1	28	2	1	1	1	0.3528178546057461
23	402023	1	29	2	1	1	-1	0.9147937753259612
23	402023	1	30	3	0	1	-1	0.5897680061298161
23	402023	1	31	3	0	1	-1	0.4704487457329378
23	402023	1	32	3	1	2	1	0.5390680795262597
23	402023	1	33	3	1	2	-1	0.6160225965068094
23	402023	1	34	3	1	2	1	0.5567608661913255
23	402023	1	35	3	1	2	1	0.5827378232424962
23	402023	1	36	3	1	2	1	0.6029846510209609
23	402023	1	37	3	1	2	-1	0.6147454213696619
23	402023	1	38	4	0	2	-1	0.6107064438747329
23	402023	1	39	4	0	2	-1	0.605350099336647
23	402023	1	40	4	0	2	1	0.617960155599576
23	402023	1	41	4	0	2	-1	0.4489763739602495
23	402023	1	42	4	0	2	-1	0.5249109440082975
23	402023	1	43	4	1	1	1	0.5946745104793081
23	402023	1	44	4	1	1	-1	0.8546190703800676
23	402023	1	45	4	1	1	1	0.5523391380756948
23	402023	1	46	4	1	1	1	0.6832939555697521
23	402023	1	47	4	1	1	1	0.6426416965678072
23	402023	1	48	4	1	1	1	0.4692930738219729
23	402023	1	49	5	0	1	-1	0.4959121738811518
23	402023	1	50	5	0	1	-1	0.4939687405894801
23	402023	1	51	5	0	1	-1	0.8575963631883496
23	402023	1	52	5	1	2	1	0.5252497927031072
23	402023	1	53	5	1	2	1	0.6312324508235179
23	402023	1	54	5	1	2	1	0.3798991615967679
23	402023	1	55	5	1	2	1	0.5455071322085132
23	402023	1	56	5	1	2	1	0.6811891363122413
23	402023	1	57	5	1	2	1	0.6958684574528888
23	402023	1	58	6	0	2	1	0.5194859640578215
23	402023	1	59	6	0	2	-1	0.4601831143299932
23	402023	1	60	6	0	2	-1	0.5011541260701051
24	402024	1	1	0	1	1	1	0.5891459327231132
24	402024	1	2	0	1	1	1	0.3791293336162198
24	402024	1	3	0	1	1	-1	0.7166808213041804
24	402024	1	4	0	1	1	1	0.4663678682809404
24	402024	1	5	0	0	2	-1	0.499976967152179
24	402024	1	6	0	1	1	1	0.6705777163842868
24	402024	1	7	0	1	1	1	0.3805409844026144
24	402024	1	8	0	1	1	-1	0.5871814935853763
24	402024	1	9	0	1	1	1	0.4991196505452535
24	402024	1	10	0	1	1	1	0.4706995895194268
24	402024	1	11	0	0	2	-1	0.504311780048738
24	402024	1	12	0	1	1	1	1.394204255295335
24	402024	1	13	0	1	1	-1	0.4782806427319883
24	402024	1	14	0	0	2	1	0.8758319263706653
24	402024	1	15	0	1	1	1	0.6187661751646374
24	402024	1	16	0	1	1	1	0.5263917791580752
24	402024	1	17	0	1	1	1	0.4860032938504446
24	402024	1	18	0	0	2	-1	0.7366603483496874
24	402024	1	19	0	1	1	1	0.774603950952951
24	402024	1	20	0	1	1	-1	0.7315000629150745
24	402024	1	21	0	1	1	1	0.6914498049318354
24	402024	1	22	0	1	1	1	0.7803627812663763
24	402024	1	23	0	1	1	1	0.6889869906153763
24	402024	1	24	0	1	1	1	0.8116571562131867
24	402024	1	25	0	1	1	1	0.5112754292695172
24	402024	1	26	1	0	1	-1	0.5128447545848758
24	402024	1	27	1	0	1	1	0.6938347094819619
24	402024	1	28	1	0	1	-1	0.504765944528117
24	402024	1	29	1	0	1	-1	1.0906773852366314
24	402024	1	30	1	1	2	-1	0.4352698135826358
24	402024	1	31	1	1	2	1	1.0078942381078375
24	402024	1	32	1	0	1	-1	0.6378750914736884
24	402024	1	33	1	1	2	1	0.8748237368799892
24	402024	1	34	1	0	1	-1	0.7127636913282913
24	402024	1	35	1	1	2	1	0.8577253254043171
24	402024	1	36	1	0	1	1	0.5106802852114924
24	402024	1	37	1	1	2	1	0.6872528799558495
24	402024	1	38	1	1	2	-1	0.6009053609650437
24	402024	1	39	1	0	1	-1	0.6618168866953056
24	402024	1	40	1	0	1	-1	0.7794745480860001
24	402024	1	41	1	0	1	1	0.714016740088482
24	402024	1	42	1	1	2	1	1.5
24	402024	1	43	1	0	1	-1	0.5089421553984721
24	402024	1	44	1	0	1	-1	0.393882722921262
24	402024	1	45	1	0	1	-1	0.4685471776101622
24	402024	1	46	1	1	2	-1	1.3711275058267347
24	402024	1	47	1	1	2	1	0.5507800097147992
24	402024	1	48	1	0	1	-1	0.5426857413694961
24	402024	1	49	1	0	1	-1	0.9966313300537876
24	402024	1	50	1	1	2	1	0.7217290472571977
24	402024	1	51	1	1	2	1	0.494882534021599
24	402024	1	52	1	1	2	1	1.2005332490753062
24	402024	1	53	1	1	2	1	0.4381104284384491
24	402024	1	54	1	0	1	-1	0.5116903296984674
24	402024	1	55	1	0	1	-1	0.3468280058405071
24	402024	1	56	1	0	1	-1	0.656292404015403
24	402024	1	57	1	1	2	1	0.5128960760994232
24	402024	1	58	1	1	2	1	0.4928516242489422
24	402024	1	59	1	1	2	1	0.5344257601846039
24	402024	1	60	1	1	2	1	0.4811286775639019
25	402025	1	1	0	1	1	1	0.3153757398422385
25	402025	1	2	0	1	1	-1	0.3549228436659177
25	402025	1	3	0	0	2	-1	1.2719092946244928
25	402025	1	4	0	1	1	1	0.942449957829922
25	402025	1	5	0	1	1	1	0.6603658958865708
25	402025	1	6	0	1	1	1	0.602951579114233
25	402025	1	7	0	1	1	1	0.626498544430433
25	402025	1	8	0	1	1	-1	1.096181695188534
25	402025	1	9	0	1	1	1	0.5420148945477195
25	402025	1	10	1	1	2	1	0.6439768221835038
25	402025	1	11	1	0	1	-1	0.6675231691597219
25	402025	1	12	1	0	1	1	0.8333956825108544
25	402025	1	13	1	0	1	-1	1.3349572975121191
25	402025	1	14	1	1	2	1	0.5259377728416439
25	402025	1	15	1	1	2	-1	0.7238250941736624
25	402025	1	16	1	1	2	1	0.5687954633713161
25	402025	1	17	1	1	2	1	0.8787978377922627
25	402025	1	18	1	1	2	-1	0.5822393886855934
25	402025	1	19	1	1	2	-1	0.7002552503163315
25	402025	1	20	1	0	1	-1	0.593779448391615
25	402025	1	21	1	0	1	-1	0.3452665535514825
25	402025	1	22	1	0	1	-1	0.4310280008612608
25	402025	1	23	1	0	1	1	0.4864781639780631
25	402025	1	24	1	0	1	-1	0.6111094072438391
25	402025	1	25	1	1	2	1	0.3534196616938061
25	402025	1	26	1	1	2	1	0.4079534464981407
25	402025	1	27	1	1	2	1	0.3506631066829868
25	402025	1	28	1	1	2	1	0.358105743379383
25	402025	1	29	1	0	1	1	1.0997102463707051
25	402025	1	30	1	0	1	-1	0.5629224800832162
25	402025	1	31	1	1	2	1	0.7288967101894741
25	402025	1	32	1	1	2	1	0.5438114783491983
25	402025	1	33	1	1	2	1	0.518316436191526
25	402025	1	34	1	0	1	-1	0.9889292595516964
25	402025	1	35	1	1	2	1	0.6268766586945276
25	402025	1	36	1	1	2	1	0.3757945655424919
25	402025	1	37	1	1	2	1	0.7993650895723476
25	402025	1	38	1	1	2	1	0.5977324892592151
25	402025	1	39	1	1	2	1	0.476231669342269
25	402025	1	40	1	1	2	1	0.4509190371718432
25	402025	1	41	1	1	2	-1	0.3303395422808535
25	402025	1	42	2	0	2	-1	0.6073776492730758
25	402025	1	43	2	1	1	1	0.3908542105173183
25	402025	1	44	2	1	1	1	0.5238004842822193
25	402025	1	45	2	1	1	-1	0.531368952953926
25	402025	1	46	2	1	1	-1	0.5843405044161045
25	402025	1	47	2	0	2	-1	0.4950214439950287
25	402025	1	48	2	0	2	-1	0.3414313062539804
25	402025	1	49	2	1	1	1	0.7160021790259634
25	402025	1	50	2	1	1	1	0.4826886737619134
25	402025	1	51	2	1	1	1	0.5068886050030414
25	402025	1	52	2	1	1	1	0.5764650304599854
25	402025	1	53	2	1	1	1	0.423958840886371
25	402025	1	54	2	1	1	1	0.4786147476315818
25	402025	1	55	2	0	2	-1	0.8531840745572481
25	402025	1	56	2	1	1	1	0.5871613666777193
25	402025	1	57	2	1	1	1	0.4480360318475505
25	402025	1	58	2	1	1	1	0.3746651694618776
25	402025	1	59	2	1	1	-1	0.5261928376567084
25	402025	1	60	2	1	1	1	0.548078017061016
27	402027	1	1	0	1	1	-1	0.3719150554320549
27	402027	1	2	0	0	2	1	0.3606795936411799
27	402027	1	3	0	0	2	-1	0.5415989092862219
27	402027	1	4	0	1	1	1	0.4835623172093619
27	402027	1	5	0	1	1	1	0.4053076442692145
27	402027	1	6	0	1	1	1	0.4568837376104966
27	402027	1	7	0	1	1	-1	0.6185059574968363
27	402027	1	8	0	0	2	-1	0.4152025919902371
27	402027	1	9	0	1	1	1	0.5088549363440507
27	402027	1	10	0	1	1	1	0.4557917874963095
27	402027	1	11	0	1	1	1	0.405537349516635
27	402027	1	12	0	1	1	1	0.4651169549060796
27	402027	1	13	0	1	1	1	0.395816767555516
27	402027	1	14	0	1	1	1	0.414504201472937
27	402027	1	15	0	1	1	1	0.459165332129487
27	402027	1	16	1	0	1	-1	0.4078044135562777
27	402027	1	17	1	0	1	-1	0.4044200483526765
27	402027	1	18	1	0	1	-1	0.3661186305489536
27	402027	1	19	1	1	2	1	0.5023659949665671
27	402027	1	20	1	1	2	1	0.470427690766428
27	402027	1	21	1	1	2	1	0.5689465092841601
27	402027	1	22	1	1	2	1	0.6867543854223186
27	402027	1	23	1	1	2	1	0.8873934173834641
27	402027	1	24	1	1	2	1	0.6829572927549634
27	402027	1	25	1	1	2	-1	0.7184039349776867
27	402027	1	26	2	1	1	1	0.5379743274243083
27	402027	1	27	2	1	1	1	0.3869507014819646
27	402027	1	28	2	1	1	1	0.6686061250607054
27	402027	1	29	2	1	1	1	0.8812699021204935
27	402027	1	30	2	1	1	1	0.4829913002618013
27	402027	1	31	2	1	1	1	0.617273030810793
27	402027	1	32	3	0	1	-1	0.4308955103906555
27	402027	1	33	3	1	2	1	0.4606412579069001
27	402027	1	34	3	1	2	1	0.4655473044417704
27	402027	1	35	3	1	2	-1	0.4262476117455662
27	402027	1	36	3	0	1	1	0.3951752623215725
27	402027	1	37	3	0	1	-1	0.416941303044041
27	402027	1	38	3	1	2	1	0.4015473415406632
27	402027	1	39	3	1	2	1	0.9284754125728796
27	402027	1	40	3	1	2	1	0.7212120275271445
27	402027	1	41	3	1	2	1	0.5837988239586593
27	402027	1	42	3	1	2	-1	0.5288492659388904
27	402027	1	43	3	0	1	-1	0.4082424920702578
27	402027	1	44	3	1	2	1	0.5387880343041616
27	402027	1	45	3	1	2	1	0.449562848963069
27	402027	1	46	3	1	2	-1	0.430800907691264
27	402027	1	47	3	0	1	-1	0.3998308899454059
27	402027	1	48	3	1	2	1	0.5288492659388904
27	402027	1	49	3	1	2	-1	0.4687795633435598
27	402027	1	50	3	0	1	-1	0.4187498840651642
27	402027	1	51	3	1	2	1	0.3863592800303195
27	402027	1	52	3	1	2	1	0.511423121394273
27	402027	1	53	3	1	2	1	0.4850456628059874
27	402027	1	54	3	1	2	1	0.5187876014811081
27	402027	1	55	3	1	2	1	0.6033902392273376
27	402027	1	56	3	1	2	1	0.4630366229930587
27	402027	1	57	4	0	2	-1	0.4867222328712159
27	402027	1	58	4	0	2	-1	1.5
27	402027	1	59	4	0	2	1	1.5
27	402027	1	60	4	0	2	-1	0.5226601289814425
28	402028	1	1	0	0	2	-1	0.48128101519933275
28	402028	1	2	0	1	1	1	0.2313173002903568
28	402028	1	3	0	0	2	1	0.2542331747342814
28	402028	1	4	0	1	1	1	0.3468383741887919
28	402028	1	5	0	0	2	-1	0.2495200289374679
28	402028	1	6	0	1	1	-1	0.3830904880710477
28	402028	1	7	0	1	1	1	0.3083569067912322
28	402028	1	8	0	1	1	-1	0.4423227816989765
28	402028	1	9	0	0	2	-1	0.1751840275521772
28	402028	1	10	0	0	2	-1	0.4228268363337975
28	402028	1	11	0	0	2	-1	0.2074501402041733
28	402028	1	12	0	1	1	1	0.6131550716170295
28	402028	1	13	0	0	2	-1	0.48128101519933275
28	402028	1	14	0	1	1	1	0.4236893930260521
28	402028	1	15	0	1	1	1	0.550626512952249
28	402028	1	16	0	1	1	1	0.4552376359145
28	402028	1	17	0	1	1	1	0.4707775685794786
28	402028	1	18	0	1	1	1	0.5014382128072157
28	402028	1	19	0	1	1	1	0.5380072157968243
28	402028	1	20	1	0	1	1	0.3926933100844962
28	402028	1	21	1	0	1	-1	0.5122535607513328
28	402028	1	22	1	1	2	1	0.5292233589007083
28	402028	1	23	1	1	2	1	0.3361905910212499
28	402028	1	24	1	1	2	-1	0.4408419047972529
28	402028	1	25	1	0	1	-1	0.6567797265170157
28	402028	1	26	1	0	1	-1	0.6643300345949683
28	402028	1	27	1	1	2	1	0.3989207220743083
28	402028	1	28	1	1	2	-1	0.3419378773683093
28	402028	1	29	1	1	2	1	0.4808605162352251
28	402028	1	30	1	1	2	1	0.4078319529335203
28	402028	1	31	1	1	2	1	0.3524125308772454
28	402028	1	32	1	1	2	1	0.430075094989661
28	402028	1	33	1	1	2	1	0.368651165378651
28	402028	1	34	2	0	2	-1	0.4492322008795781
28	402028	1	35	2	1	1	1	0.6588356412134999
28	402028	1	36	2	1	1	1	0.4428066172627041
28	402028	1	37	2	1	1	1	0.6494275900658977
28	402028	1	38	2	1	1	1	0.3837421975717916
28	402028	1	39	2	1	1	1	0.4432957085482485
28	402028	1	40	2	1	1	1	0.7529115152865415
28	402028	1	41	2	1	1	1	0.4115573321955708
28	402028	1	42	3	0	1	1	0.4861848715595442
28	402028	1	43	3	0	1	-1	0.4417607286286511
28	402028	1	44	3	1	2	1	0.5007528048554377
28	402028	1	45	3	1	2	1	0.7906228648630531
28	402028	1	46	3	1	2	-1	0.4342663785296281
28	402028	1	47	3	1	2	-1	0.3492281817984803
28	402028	1	48	3	0	1	1	0.4265284102680198
28	402028	1	49	3	0	1	-1	0.5864609515328993
28	402028	1	50	3	1	2	1	0.3480447169176841
28	402028	1	51	3	1	2	1	0.4959425827855739
28	402028	1	52	3	1	2	1	0.8746219744821246
28	402028	1	53	3	1	2	1	0.4262612959373655
28	402028	1	54	3	1	2	1	0.4508741501963413
28	402028	1	55	3	1	2	1	0.5014477967706625
28	402028	1	56	4	0	2	-1	0.383065136942605
28	402028	1	57	4	1	1	1	0.4517005351558509
28	402028	1	58	4	1	1	1	0.5636198938345842
28	402028	1	59	4	1	1	1	0.4242502094557494
28	402028	1	60	4	1	1	-1	0.3738558757422652
29	402029	1	1	0	1	1	1	0.5401953267501085
29	402029	1	2	0	1	1	1	0.4231819896249362
29	402029	1	3	0	1	1	-1	0.8807718467305676
29	402029	1	4	0	0	2	-1	0.8928179238100711
29	402029	1	5	0	0	2	-1	1.3013973993529362
29	402029	1	6	0	0	2	1	1.2050655726543482
29	402029	1	7	0	0	2	-1	0.7671308176031744
29	402029	1	8	0	1	1	1	0.5421433385472483
29	402029	1	9	0	0	2	-1	1.1540441108263622
29	402029	1	10	0	0	2	1	0.4770820322901272
29	402029	1	11	0	0	2	-1	0.3960353430738905
29	402029	1	12	0	0	2	-1	0.7200344403299823
29	402029	1	13	0	0	2	-1	0.8236976670850709
29	402029	1	14	0	1	1	1	0.7383657229056553
29	402029	1	15	0	1	1	1	0.8073079039622826
29	402029	1	16	0	1	1	1	0.8059052489043097
29	402029	1	17	0	1	1	-1	0.706644139270793
29	402029	1	18	0	0	2	-1	0.8566691811611236
29	402029	1	19	0	0	2	-1	0.6633442363454378
29	402029	1	20	0	1	1	1	0.5269518762870575
29	402029	1	21	0	1	1	1	0.7099490505734138
29	402029	1	22	0	1	1	1	0.4036576618909748
29	402029	1	23	0	1	1	1	0.6352796962819411
29	402029	1	24	0	1	1	1	0.5868715567412437
29	402029	1	25	0	1	1	1	0.5796162098322384
29	402029	1	26	0	1	1	1	0.4582520760031912
29	402029	1	27	1	0	1	1	0.5708988493097422
29	402029	1	28	1	0	1	-1	0.4975826846148266
29	402029	1	29	1	0	1	-1	0.4392867080132419
29	402029	1	30	1	1	2	1	0.4749080251549458
29	402029	1	31	1	1	2	-1	0.4249067885175464
29	402029	1	32	1	0	1	-1	0.6388650149328896
29	402029	1	33	1	1	2	1	0.6375006956095604
29	402029	1	34	1	0	1	-1	0.6581803510798636
29	402029	1	35	1	1	2	1	0.7332070933480281
29	402029	1	36	1	1	2	1	1.0147941927534705
29	402029	1	37	1	1	2	1	0.7104523616653751
29	402029	1	38	1	1	2	1	0.5800434677767043
29	402029	1	39	1	1	2	-1	0.7258079874354735
29	402029	1	40	1	0	1	-1	0.9997078446031082
29	402029	1	41	1	0	1	-1	0.4781189520726912
29	402029	1	42	1	1	2	1	0.4138005552504182
29	402029	1	43	1	1	2	1	0.560770177271479
29	402029	1	44	1	1	2	1	1.0843401616275514
29	402029	1	45	1	1	2	1	0.4680752988024323
29	402029	1	46	1	1	2	-1	1.0397006721123034
29	402029	1	47	1	0	1	-1	1.3167323114594185
29	402029	1	48	1	1	2	-1	0.7240145552113972
29	402029	1	49	1	0	1	-1	0.5186571363210533
29	402029	1	50	1	1	2	1	0.4793945427227299
29	402029	1	51	1	1	2	-1	0.5663220572696446
29	402029	1	52	1	1	2	1	0.5347510341380257
29	402029	1	53	1	1	2	1	0.585662126150055
29	402029	1	54	1	1	2	1	0.4623286485420976
29	402029	1	55	1	1	2	1	0.6319253195160854
29	402029	1	56	2	0	2	1	0.4816749006058671
29	402029	1	57	2	1	1	1	0.3373019062764797
29	402029	1	58	2	0	2	-1	0.9569186725930194
29	402029	1	59	2	0	2	-1	0.4778527660473628
29	402029	1	60	2	1	1	1	0.4566224981299456
30	402030	1	1	0	1	1	1	0.5450217508474545
30	402030	1	2	0	1	1	1	0.4663932999997087
30	402030	1	3	0	1	1	-1	0.7785048000000643
30	402030	1	4	0	0	2	-1	1.5
30	402030	1	5	0	0	2	-1	0.8002998000001753
30	402030	1	6	0	1	1	1	0.5936324999997851
30	402030	1	7	0	1	1	1	0.4104339000000436
30	402030	1	8	0	1	1	1	0.4442284000001564
30	402030	1	9	0	1	1	1	0.5491845999999896
30	402030	1	10	0	1	1	1	0.3544483000000582
30	402030	1	11	0	1	1	1	0.3872378999999455
30	402030	1	12	0	1	1	1	0.4535657999999785
30	402030	1	13	1	0	1	1	0.3794943000002604
30	402030	1	14	1	0	1	-1	0.3867374999999811
30	402030	1	15	1	1	2	-1	0.4751240999999027
30	402030	1	16	1	1	2	1	0.6812070999999378
30	402030	1	17	1	1	2	1	0.5106827999998131
30	402030	1	18	1	1	2	1	0.6809851000002709
30	402030	1	19	1	1	2	1	0.5953515999999581
30	402030	1	20	1	1	2	1	0.7924742000000151
30	402030	1	21	2	0	2	-1	0.428973600000063
30	402030	1	22	2	1	1	1	0.4079838000002382
30	402030	1	23	2	1	1	1	0.4562026999997215
30	402030	1	24	2	1	1	1	0.481373000000076
30	402030	1	25	2	1	1	-1	0.4654180999996242
30	402030	1	26	2	0	2	-1	0.4906508999997641
30	402030	1	27	2	0	2	-1	0.3305134000001999
30	402030	1	28	2	1	1	1	0.5414016000004267
30	402030	1	29	2	1	1	1	0.4216191999998955
30	402030	1	30	2	1	1	1	0.4065949999999247
30	402030	1	31	2	1	1	-1	0.4107690999999249
30	402030	1	32	2	0	2	1	0.4155808999998953
30	402030	1	33	2	0	2	-1	0.3922502999998869
30	402030	1	34	2	1	1	1	0.4863736000002063
30	402030	1	35	2	1	1	-1	0.4567713000001276
30	402030	1	36	2	0	2	-1	0.5659308999997847
30	402030	1	37	2	1	1	1	0.4627941999997347
30	402030	1	38	2	1	1	1	0.4501984000003176
30	402030	1	39	2	1	1	1	0.440419699999893
30	402030	1	40	2	1	1	1	0.3772916000002624
30	402030	1	41	2	1	1	-1	0.4623090000000047
30	402030	1	42	2	0	2	-1	0.3603289999996377
30	402030	1	43	2	1	1	1	0.747163399999863
30	402030	1	44	2	1	1	1	0.9281267999999728
30	402030	1	45	2	1	1	1	0.4542481000003135
30	402030	1	46	2	1	1	-1	0.4376726000000417
30	402030	1	47	2	0	2	-1	0.5939939999998387
30	402030	1	48	2	1	1	1	0.542991400000119
30	402030	1	49	2	1	1	1	0.639483299999938
30	402030	1	50	2	1	1	-1	0.4137224000000969
30	402030	1	51	2	0	2	-1	0.3414968000001863
30	402030	1	52	2	1	1	-1	0.8079216999999517
30	402030	1	53	2	1	1	1	0.92391409999982
30	402030	1	54	2	1	1	1	0.5489847000003465
30	402030	1	55	2	1	1	-1	0.5256556999997883
30	402030	1	56	2	1	1	-1	0.4198667000000569
30	402030	1	57	2	0	2	-1	0.6630732999997235
30	402030	1	58	2	0	2	1	0.5450217508474545
30	402030	1	59	2	1	1	-1	0.4779585999999654
30	402030	1	60	2	1	1	1	0.6065155000001141
33	402033	1	1	0	1	1	1	0.4327278999990085
33	402033	1	2	0	1	1	-1	0.5167096000004676
33	402033	1	3	0	0	2	1	1.1878984000013588
33	402033	1	4	0	1	1	1	0.36582496166662776
33	402033	1	5	0	0	2	1	0.2157416999998531
33	402033	1	6	0	1	1	1	0.1910950000001321
33	402033	1	7	0	1	1	1	0.2813005000007251
33	402033	1	8	0	1	1	1	0.0135721999995439
33	402033	1	9	0	1	1	1	0.6022540000012668
33	402033	1	10	0	1	1	1	0.3627589999996417
33	402033	1	11	0	1	1	1	0.1953972999999678
33	402033	1	12	0	1	1	1	0.4569334000007075
33	402033	1	13	1	1	2	-1	0.3229785000003176
33	402033	1	14	1	1	2	1	0.6961838999995962
33	402033	1	15	1	1	2	1	0.2880849999983184
33	402033	1	16	1	0	1	-1	0.0170400000006338
33	402033	1	17	1	0	1	-1	0.2581348000003345
33	402033	1	18	1	0	1	-1	1.0922012999999424
33	402033	1	19	1	1	2	1	1.029231999998956
33	402033	1	20	1	1	2	1	0.2676880999988498
33	402033	1	21	1	0	1	-1	0.33431709999968
33	402033	1	22	1	0	1	-1	0.7668118999990838
33	402033	1	23	1	1	2	1	1.0407918999990216
33	402033	1	24	1	0	1	-1	0.3267509999986941
33	402033	1	25	1	1	2	1	0.5616277000008267
33	402033	1	26	1	1	2	1	0.2641234999991866
33	402033	1	27	1	1	2	1	0.3014992000007623
33	402033	1	28	1	1	2	-1	0.3390769000016007
33	402033	1	29	1	1	2	1	0.5242770999993809
33	402033	1	30	1	1	2	1	0.3397588999996515
33	402033	1	31	2	1	1	1	0.0351780000000871
33	402033	1	32	2	1	1	1	0.2996922999991511
33	402033	1	33	2	0	2	-1	0.2295102000007318
33	402033	1	34	2	0	2	1	0.1797408999991603
33	402033	1	35	2	0	2	-1	1.086534300000494
33	402033	1	36	2	0	2	-1	0.159531600000264
33	402033	1	37	2	1	1	-1	0.044388300000719
33	402033	1	38	2	0	2	-1	0.3123723000007885
33	402033	1	39	2	1	1	1	0.1809491999993042
33	402033	1	40	2	0	2	-1	0.2147485999994387
33	402033	1	41	2	1	1	1	0.1248056000003998
33	402033	1	42	2	1	1	1	0.3925627999997232
33	402033	1	43	2	1	1	1	0.1533560999996552
33	402033	1	44	2	1	1	1	0.1938477000003331
33	402033	1	45	2	1	1	1	0.1953262999995786
33	402033	1	46	2	0	2	1	0.1873508999997284
33	402033	1	47	2	1	1	1	0.1704208999999537
33	402033	1	48	2	0	2	-1	0.284403999999995
33	402033	1	49	2	0	2	-1	0.2368263000007573
33	402033	1	50	2	0	2	-1	0.2665892000004533
33	402033	1	51	2	1	1	-1	0.3219826000004104
33	402033	1	52	2	0	2	-1	0.2979797999996663
33	402033	1	53	2	0	2	-1	0.294916099999682
33	402033	1	54	2	1	1	1	0.1889649999993707
33	402033	1	55	2	0	2	1	0.004115499999898
33	402033	1	56	2	0	2	-1	0.2242404000007809
33	402033	1	57	2	1	1	1	0.1853914999992412
33	402033	1	58	2	0	2	-1	0.2597855999993044
33	402033	1	59	2	0	2	1	0.2971950999999535
33	402033	1	60	2	1	1	-1	0.2497284000000945
34	402034	1	1	0	1	1	-1	0.43564653500003864
34	402034	1	2	0	1	1	-1	0.5476717000019562
34	402034	1	3	0	1	1	1	0.6760628000010911
34	402034	1	4	0	1	1	1	0.4332434999996621
34	402034	1	5	0	1	1	1	0.3749142000015126
34	402034	1	6	0	1	1	1	0.7112959000005503
34	402034	1	7	0	1	1	1	0.5715458000013314
34	402034	1	8	1	0	1	-1	0.3162401000008685
34	402034	1	9	1	1	2	1	0.4076315999991493
34	402034	1	10	1	1	2	-1	0.3692088999996485
34	402034	1	11	1	1	2	1	0.4399370999999519
34	402034	1	12	1	1	2	1	0.4238096000008227
34	402034	1	13	1	1	2	1	0.4405441999988397
34	402034	1	14	1	1	2	1	0.2994039000004704
34	402034	1	15	1	1	2	1	0.471747100000357
34	402034	1	16	2	0	2	-1	0.3812691999992239
34	402034	1	17	2	1	1	1	0.5078627000002598
34	402034	1	18	2	1	1	1	0.3844275000010384
34	402034	1	19	2	1	1	1	0.3531054999984917
34	402034	1	20	2	1	1	1	0.4036263999987568
34	402034	1	21	2	1	1	1	0.7206097999987833
34	402034	1	22	2	1	1	1	0.4207017000007909
34	402034	1	23	3	0	1	1	0.3594477000006009
34	402034	1	24	3	0	1	-1	0.4738459999971383
34	402034	1	25	3	1	2	1	0.3384518999991996
34	402034	1	26	3	1	2	1	0.3448869999992894
34	402034	1	27	3	1	2	1	0.6489503000011609
34	402034	1	28	3	1	2	1	0.3739170999979251
34	402034	1	29	3	1	2	1	0.5611495999983163
34	402034	1	30	3	1	2	1	0.5274391000020842
34	402034	1	31	4	0	2	-1	0.3595817999994324
34	402034	1	32	4	1	1	1	0.3357746999972733
34	402034	1	33	4	1	1	-1	0.3949376000018674
34	402034	1	34	4	1	1	1	0.4257586000021547
34	402034	1	35	4	1	1	1	0.3960616999975173
34	402034	1	36	4	1	1	1	0.3381015999984811
34	402034	1	37	4	1	1	1	0.374728499999037
34	402034	1	38	5	0	1	-1	0.5032678999996278
34	402034	1	39	5	1	2	1	0.5864600999993854
34	402034	1	40	5	1	2	1	0.4753612000022258
34	402034	1	41	5	1	2	1	0.3164483000000473
34	402034	1	42	5	1	2	-1	0.3208343000005698
34	402034	1	43	5	0	1	-1	0.4452974999985599
34	402034	1	44	5	0	1	1	0.3897156999992148
34	402034	1	45	5	0	1	-1	0.3506654000011622
34	402034	1	46	5	0	1	-1	0.3573470000010275
34	402034	1	47	5	1	2	-1	0.3258331000033649
34	402034	1	48	5	1	2	1	0.3307461000003968
34	402034	1	49	5	1	2	1	0.3396102000006067
34	402034	1	50	5	1	2	1	0.4223371000007319
34	402034	1	51	5	1	2	1	0.3412967000003846
34	402034	1	52	5	1	2	1	0.5219324999998207
34	402034	1	53	5	1	2	1	0.3608945999985735
34	402034	1	54	6	0	2	-1	0.4602826000009372
34	402034	1	55	6	1	1	-1	0.3525706000000355
34	402034	1	56	6	1	1	1	0.5617259999999078
34	402034	1	57	6	1	1	1	0.4548099999992701
34	402034	1	58	6	1	1	1	0.3408913999992364
34	402034	1	59	6	1	1	-1	0.3712916000004043
34	402034	1	60	6	0	2	-1	0.5204506000009133
35	402035	1	1	0	1	1	1	0.5422752666667293
35	402035	1	2	0	1	1	1	0.4612616000013076
35	402035	1	3	0	1	1	-1	0.4057957000004535
35	402035	1	4	0	0	2	-1	0.4651336999995692
35	402035	1	5	0	1	1	1	0.5843043999993824
35	402035	1	6	0	0	2	1	1.0801423999982944
35	402035	1	7	0	1	1	1	0.4980685999980778
35	402035	1	8	0	0	2	-1	0.3821348000019497
35	402035	1	9	0	1	1	1	0.4676712000000407
35	402035	1	10	0	1	1	1	0.3567934000020614
35	402035	1	11	0	1	1	1	0.4404222999983176
35	402035	1	12	0	1	1	1	0.5734267000007094
35	402035	1	13	0	1	1	1	0.4063276999986556
35	402035	1	14	0	1	1	-1	0.396052399999462
35	402035	1	15	1	1	2	1	0.5674412000007578
35	402035	1	16	1	1	2	1	0.3651582000020426
35	402035	1	17	1	1	2	-1	0.6067646000010427
35	402035	1	18	1	0	1	-1	0.5422752666667293
35	402035	1	19	1	0	1	-1	0.5493764999991981
35	402035	1	20	1	1	2	1	0.1962970000022323
35	402035	1	21	1	1	2	1	0.5471623000012187
35	402035	1	22	1	1	2	1	0.5151081999974849
35	402035	1	23	1	1	2	1	0.438549200000125
35	402035	1	24	1	1	2	1	0.5252462999997078
35	402035	1	25	1	1	2	1	0.6372129999981553
35	402035	1	26	1	1	2	1	0.696877599999425
35	402035	1	27	2	0	2	1	0.452292199999647
35	402035	1	28	2	0	2	-1	0.4243353000019851
35	402035	1	29	2	1	1	-1	0.5422752666667293
35	402035	1	30	2	1	1	1	0.5583862999992562
35	402035	1	31	2	1	1	1	0.5551850000010745
35	402035	1	32	2	1	1	1	0.5122590999999375
35	402035	1	33	2	1	1	1	0.614293099999486
35	402035	1	34	2	1	1	1	0.416480899999442
35	402035	1	35	3	0	1	-1	0.3976250000014261
35	402035	1	36	3	1	2	1	0.3873836999991908
35	402035	1	37	3	1	2	1	0.4783894999964104
35	402035	1	38	3	1	2	-1	0.5001363000010315
35	402035	1	39	3	1	2	1	0.5431402000031085
35	402035	1	40	3	1	2	-1	0.4170117000030586
35	402035	1	41	3	1	2	1	0.4433150000004389
35	402035	1	42	4	0	2	-1	0.6022907000005944
35	402035	1	43	4	0	2	-1	0.736234299998614
35	402035	1	44	4	0	2	-1	0.3637194000002637
35	402035	1	45	4	1	1	-1	0.5530480999987049
35	402035	1	46	4	1	1	1	0.5297539000021061
35	402035	1	47	4	1	1	1	0.3873124999990978
35	402035	1	48	4	1	1	1	0.41544800000338
35	402035	1	49	4	1	1	1	0.4721929999977874
35	402035	1	50	4	1	1	-1	0.5021095000010973
35	402035	1	51	4	1	1	1	0.4372776999989582
35	402035	1	52	5	1	2	1	0.6047324999999546
35	402035	1	53	5	1	2	1	0.4404909999975643
35	402035	1	54	5	1	2	-1	0.3794164000028104
35	402035	1	55	5	1	2	1	0.9549708000013196
35	402035	1	56	5	0	1	-1	0.5802880000010191
35	402035	1	57	5	1	2	1	0.4612115999989328
35	402035	1	58	5	1	2	-1	0.4716125000013562
35	402035	1	59	5	0	1	-1	0.4877650999987963
35	402035	1	60	5	1	2	1	0.3614359999992302
36	402036	1	1	0	1	1	1	0.3407049000015831
36	402036	1	2	0	1	1	1	0.4046382999986235
36	402036	1	3	0	1	1	-1	0.5798687999995309
36	402036	1	4	0	0	2	-1	0.4635137833333526
36	402036	1	5	0	0	2	-1	0.5847256000015477
36	402036	1	6	0	1	1	1	0.397072499999922
36	402036	1	7	0	1	1	1	0.4749034000014944
36	402036	1	8	0	1	1	-1	0.4263817000028211
36	402036	1	9	0	0	2	1	0.4587800999979663
36	402036	1	10	0	0	2	-1	0.4611593000008724
36	402036	1	11	0	1	1	1	0.3589191999999457
36	402036	1	12	0	1	1	1	0.471613999998226
36	402036	1	13	0	1	1	1	0.4303225999974529
36	402036	1	14	0	1	1	1	0.4419587000011233
36	402036	1	15	0	1	1	1	0.4949653000003309
36	402036	1	16	0	1	1	1	0.4608679999982996
36	402036	1	17	1	0	1	-1	0.4298066000010294
36	402036	1	18	1	1	2	1	0.3716157999988354
36	402036	1	19	1	1	2	1	0.5053597000005539
36	402036	1	20	1	1	2	1	0.4098204000001715
36	402036	1	21	1	1	2	1	0.4654154999989259
36	402036	1	22	1	1	2	1	0.4549219000000448
36	402036	1	23	1	1	2	1	0.4744670000000042
36	402036	1	24	2	0	2	-1	0.3740658999995503
36	402036	1	25	2	1	1	1	0.410788400000456
36	402036	1	26	2	1	1	1	0.4461682999972254
36	402036	1	27	2	1	1	-1	0.420256800000061
36	402036	1	28	2	0	2	1	0.3756722999969497
36	402036	1	29	2	0	2	-1	0.519385899999179
36	402036	1	30	2	1	1	1	0.3693426999998337
36	402036	1	31	2	1	1	1	0.3843998999982432
36	402036	1	32	2	1	1	1	0.5150175000017043
36	402036	1	33	2	1	1	-1	0.4736192999989725
36	402036	1	34	2	0	2	-1	0.5371228000003612
36	402036	1	35	2	1	1	1	0.4431639000031282
36	402036	1	36	2	1	1	1	0.458514699999796
36	402036	1	37	2	1	1	1	0.4796467000014672
36	402036	1	38	2	1	1	-1	0.5005456999970193
36	402036	1	39	2	0	2	-1	0.496058599997923
36	402036	1	40	2	1	1	1	0.4034152000022004
36	402036	1	41	2	1	1	1	0.4899031999993894
36	402036	1	42	2	1	1	1	0.3895524999970803
36	402036	1	43	2	1	1	1	0.4553992999972251
36	402036	1	44	2	1	1	1	0.5242676000016218
36	402036	1	45	2	1	1	-1	0.5109648000034213
36	402036	1	46	3	0	1	1	0.4064232999990054
36	402036	1	47	3	0	1	-1	0.5437538000005588
36	402036	1	48	3	0	1	-1	0.3823794000018097
36	402036	1	49	3	1	2	-1	0.461838400002307
36	402036	1	50	3	0	1	1	0.4429352000006474
36	402036	1	51	3	0	1	-1	0.4391992999990179
36	402036	1	52	3	0	1	-1	0.601156799999444
36	402036	1	53	3	1	2	1	0.4114216000016313
36	402036	1	54	3	1	2	-1	0.4302438000013353
36	402036	1	55	3	0	1	-1	0.5349043999995047
36	402036	1	56	3	0	1	-1	0.4586615000007441
36	402036	1	57	3	1	2	1	0.4323702000001503
36	402036	1	58	3	1	2	1	0.5552067999997234
36	402036	1	59	3	1	2	-1	0.4521678000019165
36	402036	1	60	3	1	2	1	0.5288011000011466
39	402039	1	1	0	1	1	-1	0.7350560000049882
39	402039	1	2	0	0	2	-1	0.8920374000008451
39	402039	1	3	0	0	2	1	0.5217794999989565
39	402039	1	4	0	0	2	-1	0.5595777999988059
39	402039	1	5	0	0	2	-1	1.0995198000018718
39	402039	1	6	0	1	1	1	0.5409800999987056
39	402039	1	7	0	0	2	-1	1.5
39	402039	1	8	0	1	1	1	1.0836028000048827
39	402039	1	9	0	1	1	1	0.7782202999951551
39	402039	1	10	0	1	1	1	0.5924404999968829
39	402039	1	11	0	1	1	1	0.5793101000017487
39	402039	1	12	0	1	1	1	0.6523739999975078
39	402039	1	13	0	1	1	1	0.4783542999939527
39	402039	1	14	0	1	1	-1	0.8476525000005495
39	402039	1	15	1	1	2	1	0.4300304000062169
39	402039	1	16	1	1	2	1	0.5012882000009995
39	402039	1	17	1	1	2	1	0.5672630999979447
39	402039	1	18	1	1	2	1	0.572167599995737
39	402039	1	19	1	1	2	1	0.8810551999995369
39	402039	1	20	1	1	2	1	0.5232306999969296
39	402039	1	21	2	1	1	1	0.8699677999975393
39	402039	1	22	2	1	1	1	0.4791639000031864
39	402039	1	23	2	1	1	1	0.5511416000008467
39	402039	1	24	2	1	1	1	0.5919659999999567
39	402039	1	25	2	1	1	1	0.4949198000031174
39	402039	1	26	2	1	1	-1	0.4173703000051318
39	402039	1	27	3	0	1	-1	0.6944889000005787
39	402039	1	28	3	1	2	1	0.4388489999982994
39	402039	1	29	3	1	2	1	0.5384733999962918
39	402039	1	30	3	1	2	-1	0.4741338999956497
39	402039	1	31	3	1	2	1	0.4384398000038345
39	402039	1	32	3	1	2	1	0.5605254999973113
39	402039	1	33	3	1	2	-1	0.5086202000020421
39	402039	1	34	4	0	2	-1	0.3689016999996966
39	402039	1	35	4	1	1	1	0.4773557999942568
39	402039	1	36	4	1	1	1	0.4567186999993282
39	402039	1	37	4	1	1	1	0.4271962999991956
39	402039	1	38	4	1	1	1	0.5049244999972871
39	402039	1	39	4	1	1	1	0.6108884999994189
39	402039	1	40	4	1	1	-1	0.6115862000006018
39	402039	1	41	4	0	2	1	0.4403203999972902
39	402039	1	42	4	0	2	-1	0.4805495999971754
39	402039	1	43	4	1	1	-1	0.4800781000012648
39	402039	1	44	4	0	2	-1	0.4223731000020052
39	402039	1	45	4	1	1	1	0.9890086999948836
39	402039	1	46	4	1	1	1	0.5354446999990614
39	402039	1	47	4	1	1	1	0.4707545999990543
39	402039	1	48	4	1	1	1	0.5979500999965239
39	402039	1	49	4	1	1	1	0.5086488000015379
39	402039	1	50	4	1	1	1	0.5453369000024395
39	402039	1	51	4	1	1	1	0.5388833000033628
39	402039	1	52	5	0	1	1	0.6672853000054602
39	402039	1	53	5	0	1	-1	0.479989999999816
39	402039	1	54	5	1	2	1	0.5088634000057937
39	402039	1	55	5	1	2	1	0.4249810000037541
39	402039	1	56	5	1	2	1	0.5180561000015587
39	402039	1	57	5	1	2	-1	0.5083644000042113
39	402039	1	58	5	0	1	-1	0.5089662999962457
39	402039	1	59	5	1	2	-1	1.0834696999954758
39	402039	1	60	5	0	1	-1	0.4232805999999982
40	402040	1	1	0	1	1	1	0.4457542000018293
40	402040	1	2	0	1	1	1	0.4363037000002805
40	402040	1	3	0	1	1	-1	0.533749700000044
40	402040	1	4	0	0	2	-1	0.5123668016664548
40	402040	1	5	0	1	1	1	0.53866779999953
40	402040	1	6	0	1	1	1	0.453961100000015
40	402040	1	7	0	1	1	1	0.4500609000024269
40	402040	1	8	0	1	1	1	0.5148269000055734
40	402040	1	9	0	1	1	-1	0.4433473000026424
40	402040	1	10	0	1	1	1	0.3549109000014141
40	402040	1	11	1	0	1	1	0.5490422000002582
40	402040	1	12	1	0	1	-1	0.4487396999975317
40	402040	1	13	1	0	1	-1	0.5575400999950944
40	402040	1	14	1	1	2	1	0.3849536000052467
40	402040	1	15	1	1	2	1	0.6094873999973061
40	402040	1	16	1	1	2	1	0.4293456000013975
40	402040	1	17	1	1	2	-1	0.408534200003487
40	402040	1	18	1	1	2	1	0.6223067000028095
40	402040	1	19	1	1	2	1	0.4442503999962355
40	402040	1	20	2	0	2	-1	0.4752105999941705
40	402040	1	21	2	0	2	1	0.6188126999986707
40	402040	1	22	2	0	2	-1	0.5304488999972818
40	402040	1	23	2	0	2	-1	0.4491702999948757
40	402040	1	24	2	1	1	1	0.7201799000031315
40	402040	1	25	2	1	1	1	0.5409486999997171
40	402040	1	26	2	1	1	1	0.4230085000017425
40	402040	1	27	2	1	1	1	0.4991585000025225
40	402040	1	28	2	1	1	1	0.4151381999981822
40	402040	1	29	2	1	1	1	0.5427391000048374
40	402040	1	30	2	1	1	-1	0.4553134000016143
40	402040	1	31	3	0	1	-1	0.4101672999968286
40	402040	1	32	3	1	2	1	0.3666924999997718
40	402040	1	33	3	1	2	1	0.4646991999979946
40	402040	1	34	3	1	2	-1	0.4048865000004298
40	402040	1	35	3	1	2	1	0.4993113000018638
40	402040	1	36	3	1	2	-1	0.5244571000002907
40	402040	1	37	3	1	2	-1	0.5123668016664548
40	402040	1	38	3	0	1	-1	0.6054472000032547
40	402040	1	39	3	1	2	1	0.4882188999981736
40	402040	1	40	3	1	2	1	0.4048631000041496
40	402040	1	41	3	1	2	-1	0.4452025999999023
40	402040	1	42	3	1	2	1	0.4185992999991867
40	402040	1	43	3	1	2	1	0.5055208999983734
40	402040	1	44	3	1	2	1	0.4861142999943695
40	402040	1	45	3	1	2	1	0.6099640999964322
40	402040	1	46	4	0	2	-1	0.4557945999986259
40	402040	1	47	4	0	2	-1	0.4248053999981493
40	402040	1	48	4	1	1	1	0.4334362000008696
40	402040	1	49	4	1	1	1	0.5321824999991804
40	402040	1	50	4	1	1	1	0.4270217000012053
40	402040	1	51	4	1	1	-1	0.4177138999948511
40	402040	1	52	4	1	1	1	0.5334487999934936
40	402040	1	53	4	1	1	1	0.4103730999995605
40	402040	1	54	5	0	1	-1	0.5931353000050876
40	402040	1	55	5	0	1	1	0.4697562999936053
40	402040	1	56	5	0	1	-1	0.6351954999990994
40	402040	1	57	5	0	1	-1	0.4594729999953415
40	402040	1	58	5	1	2	1	0.6536273000019719
40	402040	1	59	5	1	2	1	0.4691265000001294
40	402040	1	60	5	1	2	1	0.480861800002458
41	402041	1	1	0	1	1	1	0.8992340000040713
41	402041	1	2	0	1	1	1	0.538558500004001
41	402041	1	3	0	1	1	-1	1.5
41	402041	1	4	0	1	1	1	1.3174566000016057
41	402041	1	5	0	1	1	1	0.8560149999975692
41	402041	1	6	0	1	1	-1	0.5186018000022159
41	402041	1	7	0	0	2	-1	1.5
41	402041	1	8	0	0	2	-1	0.6778311999951256
41	402041	1	9	0	1	1	1	1.3660278000024846
41	402041	1	10	0	1	1	1	0.7386022999999113
41	402041	1	11	0	1	1	1	0.634118000001763
41	402041	1	12	0	1	1	1	0.5286422000062885
41	402041	1	13	0	1	1	1	0.4126864999998361
41	402041	1	14	0	1	1	-1	0.4114435000010417
41	402041	1	15	0	0	2	1	0.6558005999977468
41	402041	1	16	0	0	2	-1	0.4852298000041628
41	402041	1	17	0	1	1	1	0.935153899998113
41	402041	1	18	0	1	1	1	0.7625621999977739
41	402041	1	19	0	1	1	1	0.6130985999989207
41	402041	1	20	0	1	1	1	0.7398544999959995
41	402041	1	21	0	1	1	1	0.4903472000005422
41	402041	1	22	0	1	1	-1	0.4092092999999295
41	402041	1	23	0	0	2	-1	0.4706080000032671
41	402041	1	24	0	0	2	1	1.039597099996172
41	402041	1	25	0	0	2	-1	0.9974886999989394
41	402041	1	26	0	1	1	-1	0.6281721999985166
41	402041	1	27	0	1	1	1	0.3415862000038032
41	402041	1	28	0	1	1	1	0.4564491999990423
41	402041	1	29	0	1	1	1	0.8616875000006985
41	402041	1	30	0	1	1	1	0.4172390000021551
41	402041	1	31	0	1	1	1	0.4841658000004827
41	402041	1	32	0	1	1	-1	0.9189579999947456
41	402041	1	33	1	0	1	-1	0.5570828999989317
41	402041	1	34	1	0	1	-1	0.6919114999982412
41	402041	1	35	1	1	2	-1	1.0063107000023592
41	402041	1	36	1	0	1	-1	0.6751712999976007
41	402041	1	37	1	0	1	-1	1.5
41	402041	1	38	1	0	1	1	1.0831709999984014
41	402041	1	39	1	1	2	1	1.5
41	402041	1	40	1	0	1	-1	0.5218907999951625
41	402041	1	41	1	0	1	-1	0.7716868999996223
41	402041	1	42	1	1	2	1	0.4757950000057462
41	402041	1	43	1	1	2	1	0.455184399994323
41	402041	1	44	1	1	2	1	0.895120200002566
41	402041	1	45	1	1	2	1	0.4223082000025897
41	402041	1	46	1	1	2	1	0.7654065000024275
41	402041	1	47	1	1	2	1	0.530116399997496
41	402041	1	48	1	1	2	-1	0.4283702000029734
41	402041	1	49	2	1	1	1	0.499505699997826
41	402041	1	50	2	1	1	1	0.7366039000044111
41	402041	1	51	2	1	1	1	0.5272943999952986
41	402041	1	52	2	1	1	1	0.6685990999976639
41	402041	1	53	2	1	1	1	0.6399223000044003
41	402041	1	54	2	1	1	1	0.4205916999999317
41	402041	1	55	3	0	1	-1	0.4870222000026842
41	402041	1	56	3	1	2	1	1.4156449000001885
41	402041	1	57	3	1	2	-1	0.5438666000045487
41	402041	1	58	3	1	2	1	0.6332686999958241
41	402041	1	59	3	1	2	1	0.3282388999941759
41	402041	1	60	3	1	2	1	0.3950347999998485
42	402042	1	1	0	0	2	-1	0.6157557999999881
42	402042	1	2	0	1	1	1	0.8582245000002331
42	402042	1	3	0	1	1	1	0.6344317000002775
42	402042	1	4	0	1	1	-1	0.5213696999999229
42	402042	1	5	0	1	1	1	0.3975328000001354
42	402042	1	6	0	1	1	1	0.6128943999997318
42	402042	1	7	0	1	1	1	0.5606821000001219
42	402042	1	8	1	0	1	-1	0.4373187000001053
42	402042	1	9	1	0	1	1	0.7408844000001409
42	402042	1	10	1	0	1	-1	0.5048397999998997
42	402042	1	11	1	0	1	-1	0.7121867000000748
42	402042	1	12	1	0	1	-1	0.5905448999997134
42	402042	1	13	1	1	2	1	0.695433200000025
42	402042	1	14	1	1	2	1	0.4760602000001199
42	402042	1	15	1	1	2	1	0.6361144000002241
42	402042	1	16	1	1	2	1	0.6069266999998035
42	402042	1	17	1	1	2	-1	0.4099804999996195
42	402042	1	18	1	0	1	1	0.525849499999822
42	402042	1	19	1	0	1	-1	0.3894118999996863
42	402042	1	20	1	1	2	1	0.4440672999999151
42	402042	1	21	1	1	2	1	0.5339834999999766
42	402042	1	22	1	1	2	-1	0.485268299999916
42	402042	1	23	1	0	1	-1	0.3980501999999433
42	402042	1	24	1	1	2	1	1.0277834000003168
42	402042	1	25	1	1	2	1	0.3532422000002952
42	402042	1	26	1	1	2	1	0.389270199999828
42	402042	1	27	1	1	2	-1	0.7356701999997313
42	402042	1	28	1	0	1	-1	0.2932482000001073
42	402042	1	29	1	0	1	1	0.3884518999998363
42	402042	1	30	1	0	1	-1	1.069591400000263
42	402042	1	31	1	1	2	1	0.4523064000004524
42	402042	1	32	1	0	1	-1	0.5972399316666724
42	402042	1	33	1	1	2	1	0.7177106999997704
42	402042	1	34	1	1	2	1	0.383657200000016
42	402042	1	35	1	1	2	1	0.5646924999996372
42	402042	1	36	1	1	2	1	0.972464299999956
42	402042	1	37	1	1	2	1	0.6243012999998427
42	402042	1	38	1	1	2	1	0.7228104999999232
42	402042	1	39	1	1	2	1	0.5336135000002287
42	402042	1	40	2	0	2	-1	0.6510282999997798
42	402042	1	41	2	1	1	1	0.9510667999998076
42	402042	1	42	2	1	1	1	0.4439594999998917
42	402042	1	43	2	1	1	1	0.4503555000001142
42	402042	1	44	2	1	1	1	1.177669600000172
42	402042	1	45	2	1	1	1	0.5297614999999496
42	402042	1	46	2	1	1	1	0.528410100000201
42	402042	1	47	3	0	1	-1	0.5855501999999433
42	402042	1	48	3	1	2	1	0.7647202000002835
42	402042	1	49	3	1	2	-1	0.3898062999996909
42	402042	1	50	3	0	1	-1	0.847225200000139
42	402042	1	51	3	1	2	1	0.9247777000000496
42	402042	1	52	3	0	1	1	0.6970180000002983
42	402042	1	53	3	0	1	-1	0.2505365000001802
42	402042	1	54	3	1	2	-1	0.4140231999999741
42	402042	1	55	3	1	2	1	0.5564285000000382
42	402042	1	56	3	0	1	-1	0.6386326000001645
42	402042	1	57	3	0	1	-1	0.6625625000001492
42	402042	1	58	3	0	1	-1	0.2884386000000631
42	402042	1	59	3	1	2	1	0.4450649000000339
42	402042	1	60	3	1	2	-1	0.3658335999998598
43	402043	1	1	0	0	2	1	0.5841223999996146
43	402043	1	2	0	0	2	1	1.255955200002063
43	402043	1	3	0	0	2	-1	1.5
43	402043	1	4	0	0	2	-1	0.5939917000032437
43	402043	1	5	0	0	2	-1	0.779042499998468
43	402043	1	6	0	1	1	1	0.6532682474579029
43	402043	1	7	0	1	1	1	0.7210472000006121
43	402043	1	8	0	1	1	-1	0.6237591999997676
43	402043	1	9	0	1	1	1	0.7592408999989857
43	402043	1	10	0	0	2	-1	0.7476862999974401
43	402043	1	11	0	0	2	-1	0.6465970999997808
43	402043	1	12	0	0	2	-1	0.3281886000004306
43	402043	1	13	0	0	2	-1	0.485597200000484
43	402043	1	14	0	0	2	-1	0.2597807000020111
43	402043	1	15	0	0	2	-1	1.0276929999999993
43	402043	1	16	0	1	1	1	0.8777155999996467
43	402043	1	17	0	1	1	1	0.8076983999999356
43	402043	1	18	0	1	1	1	0.5621303000007174
43	402043	1	19	0	1	1	1	0.899982099999761
43	402043	1	20	0	1	1	1	0.5024948999998742
43	402043	1	21	0	1	1	1	0.5400563000002876
43	402043	1	22	1	1	2	-1	0.5699825000010605
43	402043	1	23	1	0	1	-1	0.9566534000005048
43	402043	1	24	1	0	1	-1	0.7866577999993751
43	402043	1	25	1	1	2	1	0.5111186000031012
43	402043	1	26	1	1	2	1	0.6567154000003939
43	402043	1	27	1	1	2	-1	0.5817444000022078
43	402043	1	28	1	0	1	-1	0.5140442999982042
43	402043	1	29	1	1	2	1	0.7121418999995512
43	402043	1	30	1	1	2	1	0.692835699999705
43	402043	1	31	1	1	2	1	0.5484342000017932
43	402043	1	32	1	1	2	1	0.8226374999976542
43	402043	1	33	1	1	2	1	0.6674978999981249
43	402043	1	34	1	1	2	1	0.3538399000026402
43	402043	1	35	1	0	1	1	0.6532682474579029
43	402043	1	36	1	0	1	-1	0.6241384000022663
43	402043	1	37	1	1	2	1	0.6236356000008527
43	402043	1	38	1	1	2	-1	0.7173791999994137
43	402043	1	39	1	1	2	1	0.3706565000029513
43	402043	1	40	1	1	2	1	0.6000578000021051
43	402043	1	41	1	1	2	1	0.4865615000016987
43	402043	1	42	1	1	2	1	0.4950229999994917
43	402043	1	43	1	1	2	1	0.4289814000003389
43	402043	1	44	2	0	2	-1	0.3783359999979439
43	402043	1	45	2	1	1	-1	0.5279025999989244
43	402043	1	46	2	0	2	-1	0.6372445999986667
43	402043	1	47	2	1	1	-1	0.6239429999986896
43	402043	1	48	2	1	1	1	0.8605715000012424
43	402043	1	49	2	1	1	-1	0.6234839999997348
43	402043	1	50	2	0	2	-1	0.4043251000002783
43	402043	1	51	2	1	1	1	0.8977406999983941
43	402043	1	52	2	1	1	1	0.8606198000015866
43	402043	1	53	2	1	1	-1	0.4496762999988277
43	402043	1	54	2	1	1	1	0.5713938000008056
43	402043	1	55	2	1	1	1	0.3704027999992831
43	402043	1	56	2	1	1	1	0.5382414000014251
43	402043	1	57	3	0	1	-1	0.5338160000028438
43	402043	1	58	3	1	2	1	0.602439600002981
43	402043	1	59	3	0	1	1	0.7148627000024135
43	402043	1	60	3	1	2	1	0.431813899998815
44	402044	1	1	0	1	1	1	0.3970365999994101
44	402044	1	2	0	1	1	1	0.7628695999992487
44	402044	1	3	0	1	1	-1	0.4905359999975189
44	402044	1	4	0	1	1	1	0.6408360999994329
44	402044	1	5	0	0	2	-1	0.8634354999994684
44	402044	1	6	0	1	1	1	1.0380120999980136
44	402044	1	7	0	1	1	1	0.4926980000018375
44	402044	1	8	0	1	1	1	0.4429650000020046
44	402044	1	9	0	1	1	1	0.6507139000023017
44	402044	1	10	0	0	2	-1	0.9291149000018776
44	402044	1	11	0	0	2	1	0.5188496000009764
44	402044	1	12	0	0	2	-1	0.5011386000005587
44	402044	1	13	0	0	2	-1	1.0756658999998765
44	402044	1	14	0	1	1	1	1.1159937999982503
44	402044	1	15	0	1	1	1	0.4973934000008739
44	402044	1	16	0	1	1	-1	0.4403762000001734
44	402044	1	17	0	1	1	-1	0.6872557999995479
44	402044	1	18	0	0	2	-1	0.5014751000016986
44	402044	1	19	0	0	2	-1	1.2211459999998624
44	402044	1	20	0	1	1	-1	1.2670605999992404
44	402044	1	21	0	1	1	1	0.9129141000012168
44	402044	1	22	0	1	1	1	0.4009490999997069
44	402044	1	23	0	1	1	1	0.3904937000006612
44	402044	1	24	0	1	1	1	0.774364400000195
44	402044	1	25	0	1	1	1	0.565558799997234
44	402044	1	26	1	1	2	1	0.850985999997647
44	402044	1	27	1	1	2	1	0.418144499999471
44	402044	1	28	1	1	2	-1	0.5203306999974302
44	402044	1	29	1	1	2	1	0.6942799000025843
44	402044	1	30	1	1	2	-1	0.5181840999975975
44	402044	1	31	1	0	1	1	0.428044399999635
44	402044	1	32	1	0	1	-1	0.8029905999974289
44	402044	1	33	1	0	1	-1	0.6657611999980872
44	402044	1	34	1	0	1	1	0.4816304999985732
44	402044	1	35	1	0	1	-1	0.8880205000023125
44	402044	1	36	1	1	2	-1	0.509855599997536
44	402044	1	37	1	1	2	1	0.7814529000024777
44	402044	1	38	1	0	1	-1	0.795597699998325
44	402044	1	39	1	1	2	1	0.6180129000022134
44	402044	1	40	1	1	2	1	0.5523395999989589
44	402044	1	41	1	1	2	1	0.8555821000009018
44	402044	1	42	1	1	2	1	0.470589700002165
44	402044	1	43	1	0	1	-1	0.5250889000017196
44	402044	1	44	1	0	1	-1	0.5637397000027704
44	402044	1	45	1	0	1	-1	0.5458031999987725
44	402044	1	46	1	1	2	1	0.5291279000011855
44	402044	1	47	1	1	2	1	0.5283768000008422
44	402044	1	48	1	1	2	1	0.4310874000002513
44	402044	1	49	1	1	2	1	0.6369240000021819
44	402044	1	50	1	1	2	1	0.4911243000024115
44	402044	1	51	1	1	2	1	0.6508435000032478
44	402044	1	52	2	0	2	1	0.4008307000003697
44	402044	1	53	2	0	2	-1	0.487555899999279
44	402044	1	54	2	1	1	1	0.4856110000000626
44	402044	1	55	2	1	1	-1	0.7401621999997587
44	402044	1	56	2	1	1	1	0.7392452999993111
44	402044	1	57	2	1	1	1	0.4422978000002331
44	402044	1	58	2	1	1	1	0.5133645999994769
44	402044	1	59	2	1	1	1	0.4717238999983237
44	402044	1	60	3	0	1	-1	0.6864782000011473
46	402046	1	1	0	1	1	1	0.6733552000005147
46	402046	1	2	0	1	1	1	0.4875247999952989
46	402046	1	3	0	1	1	-1	0.8174174999949173
46	402046	1	4	0	0	2	-1	0.6676290999967023
46	402046	1	5	0	1	1	1	0.6574087000044528
46	402046	1	6	0	1	1	-1	0.7927749999944353
46	402046	1	7	0	1	1	1	0.7955196000038995
46	402046	1	8	0	1	1	1	0.8643833000023733
46	402046	1	9	0	0	2	1	1.0942202000005636
46	402046	1	10	0	1	1	1	0.7933126999996603
46	402046	1	11	0	0	2	-1	0.7553023000000394
46	402046	1	12	0	1	1	-1	1.2518262000012328
46	402046	1	13	0	1	1	1	0.6095918999999412
46	402046	1	14	0	1	1	1	0.9689856000040892
46	402046	1	15	0	0	2	-1	1.2503684999974212
46	402046	1	16	0	1	1	1	0.708282000006875
46	402046	1	17	0	1	1	1	0.5723441000009188
46	402046	1	18	0	1	1	1	0.9027507999999216
46	402046	1	19	0	1	1	1	1.1635211999964667
46	402046	1	20	0	1	1	1	0.477943799996865
46	402046	1	21	0	1	1	1	0.5970614999969257
46	402046	1	22	0	1	1	1	0.6266018000023905
46	402046	1	23	1	0	1	-1	0.6236418000044068
46	402046	1	24	1	1	2	1	0.6010373000026448
46	402046	1	25	1	1	2	1	0.5875491999977385
46	402046	1	26	1	1	2	1	0.5800612000020919
46	402046	1	27	1	1	2	1	0.6937748999989708
46	402046	1	28	1	1	2	1	0.4068010999981197
46	402046	1	29	1	1	2	1	0.7199892000062391
46	402046	1	30	2	0	2	-1	0.5043451000019559
46	402046	1	31	2	1	1	1	0.4096650999999838
46	402046	1	32	2	1	1	1	0.7643115999962902
46	402046	1	33	2	1	1	1	0.7014546999998856
46	402046	1	34	2	1	1	1	0.6258765000020503
46	402046	1	35	2	1	1	1	0.6361429000025964
46	402046	1	36	2	1	1	1	0.5077708999961033
46	402046	1	37	2	1	1	-1	0.6581800999992993
46	402046	1	38	3	1	2	1	0.5287071999991895
46	402046	1	39	3	1	2	-1	0.6140719000031822
46	402046	1	40	3	0	1	-1	0.602824800000235
46	402046	1	41	3	1	2	1	0.8509636000017053
46	402046	1	42	3	1	2	1	0.7501093999962904
46	402046	1	43	3	1	2	-1	0.9332291000027908
46	402046	1	44	3	0	1	1	0.5822245000017574
46	402046	1	45	3	0	1	-1	0.8611710999975912
46	402046	1	46	3	1	2	-1	0.5671180999997887
46	402046	1	47	3	1	2	1	1.166224400003557
46	402046	1	48	3	1	2	1	0.8634610000008252
46	402046	1	49	3	1	2	1	0.4912719999992987
46	402046	1	50	3	1	2	1	0.8159433999971952
46	402046	1	51	3	1	2	1	0.7965497000041069
46	402046	1	52	4	1	1	-1	0.5398533000043244
46	402046	1	53	4	0	2	1	0.5471834000054514
46	402046	1	54	4	0	2	-1	0.7046961000014562
46	402046	1	55	4	1	1	1	0.4938093000018853
46	402046	1	56	4	1	1	1	1.1579379000031622
46	402046	1	57	4	1	1	1	0.6629541000002064
46	402046	1	58	4	1	1	1	0.6932830000005197
46	402046	1	59	4	1	1	1	0.6947253000034834
46	402046	1	60	4	1	1	-1	0.9077543000021252
47	402047	1	1	0	1	1	1	0.4039830000001529
47	402047	1	2	0	1	1	1	0.3806296000002476
47	402047	1	3	0	0	2	-1	0.4173467000000528
47	402047	1	4	0	1	1	-1	0.3872516999981599
47	402047	1	5	0	1	1	1	0.5181465999994543
47	402047	1	6	0	1	1	1	0.4551252000019303
47	402047	1	7	0	1	1	-1	0.4576162000012118
47	402047	1	8	0	1	1	1	0.4106388999971386
47	402047	1	9	0	1	1	1	0.5588744999986375
47	402047	1	10	1	0	1	-1	0.4979910000001837
47	402047	1	11	1	0	1	1	0.402085600002465
47	402047	1	12	1	0	1	-1	0.5490481999986514
47	402047	1	13	1	0	1	-1	1.1842069000012998
47	402047	1	14	1	1	2	1	1.0694455000011658
47	402047	1	15	1	1	2	1	1.5
47	402047	1	16	1	1	2	1	0.9917062999993504
47	402047	1	17	1	1	2	1	0.9199853999998596
47	402047	1	18	1	0	1	-1	1.343074099997466
47	402047	1	19	1	1	2	-1	1.317484200000763
47	402047	1	20	1	0	1	1	1.5
47	402047	1	21	1	1	2	1	1.1931022000026132
47	402047	1	22	1	1	2	1	0.7395557000018016
47	402047	1	23	1	1	2	-1	1.2928288000002794
47	402047	1	24	1	1	2	1	1.384274699998059
47	402047	1	25	1	1	2	-1	0.7850698000002012
47	402047	1	26	1	0	1	-1	0.9274761999986368
47	402047	1	27	1	0	1	-1	0.5662926999975753
47	402047	1	28	1	0	1	-1	0.3978684000030625
47	402047	1	29	1	1	2	-1	1.043673600001057
47	402047	1	30	1	0	1	-1	0.4606548999981896
47	402047	1	31	1	0	1	-1	0.3695506000003661
47	402047	1	32	1	1	2	1	1.0976095999976678
47	402047	1	33	1	1	2	1	0.9348433000013756
47	402047	1	34	1	1	2	1	0.6112659999998868
47	402047	1	35	1	1	2	1	0.7223436999993282
47	402047	1	36	1	1	2	-1	0.6792320999993535
47	402047	1	37	1	1	2	1	0.5332565999997314
47	402047	1	38	1	0	1	-1	0.5651069999985339
47	402047	1	39	1	0	1	1	0.4478808999992907
47	402047	1	40	1	1	2	1	0.5741345000024012
47	402047	1	41	1	0	1	-1	0.572422799999913
47	402047	1	42	1	0	1	1	0.5740877999996883
47	402047	1	43	1	1	2	1	0.4484935000000405
47	402047	1	44	1	0	1	-1	0.6487352000003739
47	402047	1	45	1	0	1	-1	0.7416658000001917
47	402047	1	46	1	1	2	1	0.8918917000009969
47	402047	1	47	1	1	2	1	0.4674961000018811
47	402047	1	48	1	1	2	-1	0.3913433999987319
47	402047	1	49	1	0	1	-1	0.492347499999596
47	402047	1	50	1	0	1	-1	0.3733783999996376
47	402047	1	51	1	1	2	1	0.5379706999992777
47	402047	1	52	1	1	2	1	0.6104895999997098
47	402047	1	53	1	1	2	-1	0.5195471000006364
47	402047	1	54	1	1	2	1	0.519286300001113
47	402047	1	55	1	1	2	-1	0.4884405000011611
47	402047	1	56	1	1	2	1	0.5151513999990129
47	402047	1	57	1	1	2	1	0.5162778999983857
47	402047	1	58	2	0	2	-1	0.6286761999981536
47	402047	1	59	2	0	2	-1	0.599314899998717
47	402047	1	60	2	0	2	1	0.6005387000004703
48	402048	1	1	0	1	1	-1	0.4853311000006215
48	402048	1	2	0	0	2	1	0.3332687000001897
48	402048	1	3	0	0	2	-1	0.4859222999984922
48	402048	1	4	0	0	2	-1	0.788437300001533
48	402048	1	5	0	1	1	1	0.4155090999993263
48	402048	1	6	0	1	1	1	0.4233077999997476
48	402048	1	7	0	1	1	1	0.4741211000000476
48	402048	1	8	0	1	1	1	0.5671344000002136
48	402048	1	9	0	1	1	1	0.5174379199999748
48	402048	1	10	0	1	1	1	0.4558548999993945
48	402048	1	11	1	0	1	-1	0.4672621999998227
48	402048	1	12	1	0	1	-1	0.4604843000015535
48	402048	1	13	1	1	2	1	0.4172453999999561
48	402048	1	14	1	1	2	1	0.386527800001204
48	402048	1	15	1	1	2	-1	0.8578516999987187
48	402048	1	16	1	1	2	1	0.45815550000043
48	402048	1	17	1	1	2	1	0.5171560000017053
48	402048	1	18	1	1	2	1	0.5112171000000671
48	402048	1	19	2	0	2	1	0.418174700000236
48	402048	1	20	2	0	2	-1	0.356859200001054
48	402048	1	21	2	0	2	-1	0.3403005000000121
48	402048	1	22	2	1	1	1	0.3550853000015195
48	402048	1	23	2	1	1	-1	0.4735227000019222
48	402048	1	24	2	1	1	-1	0.5783092000019678
48	402048	1	25	2	0	2	-1	0.4721939000010025
48	402048	1	26	2	0	2	1	0.4565073999983724
48	402048	1	27	2	0	2	-1	0.3847468000021763
48	402048	1	28	2	0	2	-1	0.6233308000009856
48	402048	1	29	2	1	1	1	0.4066024999992805
48	402048	1	30	2	1	1	1	0.4548985000001266
48	402048	1	31	2	1	1	1	0.4437237999991339
48	402048	1	32	2	1	1	1	0.5871769999976095
48	402048	1	33	2	1	1	1	0.3677762000006623
48	402048	1	34	2	1	1	1	0.464668000000529
48	402048	1	35	3	0	1	-1	0.440993599997455
48	402048	1	36	3	0	1	-1	0.4620896999986144
48	402048	1	37	3	1	2	1	0.488166099999944
48	402048	1	38	3	1	2	1	0.5088577999995323
48	402048	1	39	3	1	2	1	0.4916970999984187
48	402048	1	40	3	1	2	1	0.8204664000004414
48	402048	1	41	3	1	2	1	0.4367854000010993
48	402048	1	42	3	1	2	-1	0.3763448000026983
48	402048	1	43	3	1	2	1	0.4704639999981737
48	402048	1	44	4	0	2	-1	0.5792490000021644
48	402048	1	45	4	0	2	-1	0.4697481000002881
48	402048	1	46	4	1	1	1	0.5308886999991955
48	402048	1	47	4	1	1	1	0.5076731999979529
48	402048	1	48	4	1	1	-1	0.5638832000004186
48	402048	1	49	4	1	1	1	0.5332301999987976
48	402048	1	50	4	1	1	1	0.4635511999986192
48	402048	1	51	4	1	1	1	0.4940433000010671
48	402048	1	52	4	1	1	-1	0.6973249999973632
48	402048	1	53	5	0	1	-1	0.5174379199999748
48	402048	1	54	5	1	2	-1	0.47668369999883
48	402048	1	55	5	1	2	1	0.9470083999985944
48	402048	1	56	5	1	2	1	0.679760000002716
48	402048	1	57	5	1	2	1	0.4428740000003017
48	402048	1	58	5	1	2	1	0.4665390999980445
48	402048	1	59	5	1	2	1	0.5054850000014994
48	402048	1	60	5	1	2	1	0.5066255999990972
49	402049	1	1	0	0	2	-1	0.8392370000001392
49	402049	1	2	0	1	1	1	1.1171868000019458
49	402049	1	3	0	0	2	-1	0.9729772999999112
49	402049	1	4	0	0	2	1	0.4913360999998986
49	402049	1	5	0	0	2	-1	0.6064963999961037
49	402049	1	6	0	1	1	1	0.3654314000013983
49	402049	1	7	0	0	2	-1	0.5463015999994241
49	402049	1	8	0	1	1	-1	0.9040271999983815
49	402049	1	9	0	0	2	-1	0.4460895000011078
49	402049	1	10	0	0	2	-1	0.9844411000012768
49	402049	1	11	0	1	1	1	0.9055200000002516
49	402049	1	12	0	0	2	1	0.5977857000034419
49	402049	1	13	0	0	2	-1	0.473271000002569
49	402049	1	14	0	0	2	-1	0.913178800001333
49	402049	1	15	0	0	2	-1	0.5043150000055903
49	402049	1	16	0	0	2	-1	0.5529068000032566
49	402049	1	17	0	0	2	-1	0.5795891999950982
49	402049	1	18	0	1	1	1	0.5785168000002159
49	402049	1	19	0	0	2	-1	0.3547844999993685
49	402049	1	20	0	1	1	-1	1.2431195000026491
49	402049	1	21	0	0	2	1	0.6789857000039774
49	402049	1	22	0	1	1	1	0.939823399996385
49	402049	1	23	0	1	1	-1	0.5586436999947182
49	402049	1	24	0	1	1	1	0.4227036999945994
49	402049	1	25	0	1	1	1	0.8182318000035593
49	402049	1	26	0	0	2	1	0.7319734999982757
49	402049	1	27	0	1	1	1	0.5270705000002636
49	402049	1	28	0	0	2	-1	0.5026648999992176
49	402049	1	29	0	0	2	-1	1.5
49	402049	1	30	0	0	2	-1	1.1786238999993657
49	402049	1	31	0	1	1	-1	1.0315274000022328
49	402049	1	32	0	0	2	-1	0.9082739000004948
49	402049	1	33	0	0	2	-1	0.9058982999995352
49	402049	1	34	0	0	2	-1	0.6373275000005378
49	402049	1	35	0	1	1	1	0.5743423000021721
49	402049	1	36	0	1	1	1	0.6805873999983305
49	402049	1	37	0	1	1	1	0.7729686999955447
49	402049	1	38	0	1	1	1	0.5964114000016707
49	402049	1	39	0	1	1	1	0.9696330999940984
49	402049	1	40	0	1	1	1	0.5444306999997934
49	402049	1	41	1	0	1	1	0.5524229000002379
49	402049	1	42	1	0	1	1	0.7676143999997294
49	402049	1	43	1	0	1	-1	0.5068963000012445
49	402049	1	44	1	0	1	-1	1.0531216999952449
49	402049	1	45	1	1	2	1	0.5647861999968882
49	402049	1	46	1	1	2	1	0.747053799997957
49	402049	1	47	1	1	2	1	1.393123599998944
49	402049	1	48	1	1	2	1	0.7030267000009189
49	402049	1	49	1	1	2	1	0.7247138000020641
49	402049	1	50	1	1	2	1	0.6951671999995597
49	402049	1	51	2	0	2	-1	0.5967023000048357
49	402049	1	52	2	1	1	1	0.8137436999968486
49	402049	1	53	2	1	1	1	0.3937522999985958
49	402049	1	54	2	1	1	1	0.4130079000024125
49	402049	1	55	2	1	1	1	0.9872272000066004
49	402049	1	56	2	1	1	1	0.7443682000011904
49	402049	1	57	2	1	1	1	0.8194040000016685
49	402049	1	58	3	0	1	-1	0.7065860000002431
